# BinNR microsec tot-time (s)  O-Beam AUX Ampl(V) f(Hz) phase(deg) chi(pos)
0 0.00 1200.01 230 513 1.340 10000.000 0.000 -0.527
1 3.00 1200.01 393 1056 1.340 10000.000 0.000 -0.527
2 6.00 1200.01 386 1016 1.340 10000.000 0.000 -0.527
3 9.00 1200.01 340 995 1.340 10000.000 0.000 -0.527
4 12.00 1200.01 360 1030 1.340 10000.000 0.000 -0.527
5 15.00 1200.01 376 959 1.340 10000.000 0.000 -0.527
6 18.00 1200.01 380 855 1.340 10000.000 0.000 -0.527
7 21.00 1200.01 314 886 1.340 10000.000 0.000 -0.527
8 24.00 1200.01 370 838 1.340 10000.000 0.000 -0.527
9 27.00 1200.01 324 838 1.340 10000.000 0.000 -0.527
10 30.00 1200.01 344 844 1.340 10000.000 0.000 -0.527
11 33.00 1200.01 359 796 1.340 10000.000 0.000 -0.527
12 36.00 1200.01 310 781 1.340 10000.000 0.000 -0.527
13 39.00 1200.01 320 824 1.340 10000.000 0.000 -0.527
14 42.00 1200.01 300 814 1.340 10000.000 0.000 -0.527
15 45.00 1200.01 330 809 1.340 10000.000 0.000 -0.527
16 48.00 1200.01 344 787 1.340 10000.000 0.000 -0.527
17 51.00 1200.01 342 795 1.340 10000.000 0.000 -0.527
18 54.00 1200.01 323 842 1.340 10000.000 0.000 -0.527
19 57.00 1200.01 352 807 1.340 10000.000 0.000 -0.527
20 60.00 1200.01 330 842 1.340 10000.000 0.000 -0.527
21 63.00 1200.01 358 892 1.340 10000.000 0.000 -0.527
22 66.00 1200.01 357 888 1.340 10000.000 0.000 -0.527
23 69.00 1200.01 330 900 1.340 10000.000 0.000 -0.527
24 72.00 1200.01 395 944 1.340 10000.000 0.000 -0.527
25 75.00 1200.01 359 932 1.340 10000.000 0.000 -0.527
26 78.00 1200.01 345 1017 1.340 10000.000 0.000 -0.527
27 81.00 1200.01 348 974 1.340 10000.000 0.000 -0.527
28 84.00 1200.01 376 1003 1.340 10000.000 0.000 -0.527
29 87.00 1200.01 349 1025 1.340 10000.000 0.000 -0.527
30 90.00 1200.01 382 1043 1.340 10000.000 0.000 -0.527
31 93.00 1200.01 373 1019 1.340 10000.000 0.000 -0.527
32 96.00 1200.01 374 1045 1.340 10000.000 0.000 -0.527
33 99.00 1200.01 375 1057 1.340 10000.000 0.000 -0.527
34 102.00 1200.01 380 1077 1.340 10000.000 0.000 -0.527
35 105.00 1200.01 366 996 1.340 10000.000 0.000 -0.527
36 108.00 1200.01 348 1017 1.340 10000.000 0.000 -0.527
37 111.00 1200.01 376 1016 1.340 10000.000 0.000 -0.527
38 114.00 1200.01 378 1025 1.340 10000.000 0.000 -0.527
39 117.00 1200.01 347 955 1.340 10000.000 0.000 -0.527
40 120.00 1200.01 383 940 1.340 10000.000 0.000 -0.527
41 123.00 1200.01 372 902 1.340 10000.000 0.000 -0.527
42 126.00 1200.01 356 871 1.340 10000.000 0.000 -0.527
43 129.00 1200.01 311 793 1.340 10000.000 0.000 -0.527
44 132.00 1200.01 339 813 1.340 10000.000 0.000 -0.527
45 135.00 1200.01 333 746 1.340 10000.000 0.000 -0.527
46 138.00 1200.01 335 752 1.340 10000.000 0.000 -0.527
47 141.00 1200.01 331 767 1.340 10000.000 0.000 -0.527
48 144.00 1200.01 294 777 1.340 10000.000 0.000 -0.527
49 147.00 1200.01 319 739 1.340 10000.000 0.000 -0.527
50 150.00 1200.01 324 778 1.340 10000.000 0.000 -0.527
51 153.00 1200.01 293 727 1.340 10000.000 0.000 -0.527
52 156.00 1200.01 371 832 1.340 10000.000 0.000 -0.527
53 159.00 1200.01 365 834 1.340 10000.000 0.000 -0.527
54 162.00 1200.01 378 873 1.340 10000.000 0.000 -0.527
55 165.00 1200.01 382 912 1.340 10000.000 0.000 -0.527
56 168.00 1200.01 384 868 1.340 10000.000 0.000 -0.527
57 171.00 1200.01 353 901 1.340 10000.000 0.000 -0.527
58 174.00 1200.01 391 1003 1.340 10000.000 0.000 -0.527
59 177.00 1200.01 356 1020 1.340 10000.000 0.000 -0.527
60 180.00 1200.01 363 1018 1.340 10000.000 0.000 -0.527
61 183.00 1200.01 359 1052 1.340 10000.000 0.000 -0.527
62 186.00 1200.01 368 973 1.340 10000.000 0.000 -0.527
63 189.00 1200.01 355 1065 1.340 10000.000 0.000 -0.527
64 192.00 1200.01 394 1030 1.340 10000.000 0.000 -0.527
65 195.00 1200.01 347 1037 1.340 10000.000 0.000 -0.527
66 198.00 1200.01 365 1062 1.340 10000.000 0.000 -0.527
67 201.00 1200.01 358 1013 1.340 10000.000 0.000 -0.527
68 204.00 1200.01 382 999 1.340 10000.000 0.000 -0.527
69 207.00 1200.01 369 998 1.340 10000.000 0.000 -0.527
70 210.00 1200.01 367 1037 1.340 10000.000 0.000 -0.527
71 213.00 1200.01 324 957 1.340 10000.000 0.000 -0.527
72 216.00 1200.01 340 959 1.340 10000.000 0.000 -0.527
73 219.00 1200.01 360 927 1.340 10000.000 0.000 -0.527
74 222.00 1200.01 322 924 1.340 10000.000 0.000 -0.527
75 225.00 1200.01 357 825 1.340 10000.000 0.000 -0.527
76 228.00 1200.01 353 802 1.340 10000.000 0.000 -0.527
77 231.00 1200.01 338 804 1.340 10000.000 0.000 -0.527
78 234.00 1200.01 351 725 1.340 10000.000 0.000 -0.527
79 237.00 1200.01 320 831 1.340 10000.000 0.000 -0.527
80 240.00 1200.01 312 784 1.340 10000.000 0.000 -0.527
81 243.00 1200.01 344 699 1.340 10000.000 0.000 -0.527
82 246.00 1200.01 360 756 1.340 10000.000 0.000 -0.527
83 249.00 1200.01 349 755 1.340 10000.000 0.000 -0.527
84 252.00 1200.01 351 745 1.340 10000.000 0.000 -0.527
85 255.00 1200.01 361 746 1.340 10000.000 0.000 -0.527
86 258.00 1200.01 330 779 1.340 10000.000 0.000 -0.527
87 261.00 1200.01 349 834 1.340 10000.000 0.000 -0.527
88 264.00 1200.01 358 913 1.340 10000.000 0.000 -0.527
89 267.00 1200.01 355 836 1.340 10000.000 0.000 -0.527
90 270.00 1200.01 354 901 1.340 10000.000 0.000 -0.527
91 273.00 1200.01 405 943 1.340 10000.000 0.000 -0.527
92 276.00 1200.01 356 961 1.340 10000.000 0.000 -0.527
93 279.00 1200.01 370 938 1.340 10000.000 0.000 -0.527
94 282.00 1200.01 371 1015 1.340 10000.000 0.000 -0.527
95 285.00 1200.01 363 1003 1.340 10000.000 0.000 -0.527
96 288.00 1200.01 384 1069 1.340 10000.000 0.000 -0.527
97 291.00 1200.01 371 991 1.340 10000.000 0.000 -0.527
98 294.00 1200.01 379 1058 1.340 10000.000 0.000 -0.527
99 297.00 1200.01 371 1032 1.340 10000.000 0.000 -0.527
100 300.00 1200.01 344 1056 1.340 10000.000 0.000 -0.527
101 303.00 1200.01 342 1071 1.340 10000.000 0.000 -0.527
102 306.00 1200.01 357 1073 1.340 10000.000 0.000 -0.527
103 309.00 1200.01 362 973 1.340 10000.000 0.000 -0.527
104 312.00 1200.01 363 1029 1.340 10000.000 0.000 -0.527
105 315.00 1200.01 342 1025 1.340 10000.000 0.000 -0.527
106 318.00 1200.01 357 962 1.340 10000.000 0.000 -0.527
107 321.00 1200.01 308 939 1.340 10000.000 0.000 -0.527
108 324.00 1200.01 351 856 1.340 10000.000 0.000 -0.527
109 327.00 1200.01 336 872 1.340 10000.000 0.000 -0.527
110 330.00 1200.01 318 883 1.340 10000.000 0.000 -0.527
111 333.00 1200.01 345 847 1.340 10000.000 0.000 -0.527
112 336.00 1200.01 338 827 1.340 10000.000 0.000 -0.527
113 339.00 1200.01 328 736 1.340 10000.000 0.000 -0.527
114 342.00 1200.01 339 690 1.340 10000.000 0.000 -0.527
115 345.00 1200.01 338 726 1.340 10000.000 0.000 -0.527
116 348.00 1200.01 296 754 1.340 10000.000 0.000 -0.527
117 351.00 1200.01 333 738 1.340 10000.000 0.000 -0.527
118 354.00 1200.01 339 803 1.340 10000.000 0.000 -0.527
119 357.00 1200.01 326 813 1.340 10000.000 0.000 -0.527
120 360.00 1200.01 353 809 1.340 10000.000 0.000 -0.527
121 363.00 1200.01 337 880 1.340 10000.000 0.000 -0.527
122 366.00 1200.01 369 892 1.340 10000.000 0.000 -0.527
123 369.00 1200.01 340 845 1.340 10000.000 0.000 -0.527
124 372.00 1200.01 350 999 1.340 10000.000 0.000 -0.527
125 375.00 1200.01 414 960 1.340 10000.000 0.000 -0.527
126 378.00 1200.01 373 989 1.340 10000.000 0.000 -0.527
127 381.00 1200.01 366 1029 1.340 10000.000 0.000 -0.527
128 384.00 1200.01 353 1039 1.340 10000.000 0.000 -0.527
129 387.00 1200.01 368 1046 1.340 10000.000 0.000 -0.527
130 390.00 1200.01 372 1037 1.340 10000.000 0.000 -0.527
131 393.00 1200.01 370 1111 1.340 10000.000 0.000 -0.527
132 396.00 1200.01 386 1057 1.340 10000.000 0.000 -0.527
133 399.00 1200.01 359 1024 1.340 10000.000 0.000 -0.527
134 402.00 1200.01 329 1020 1.340 10000.000 0.000 -0.527
