# BinNR microsec tot-time (s)  O-Beam AUX Ampl(V) f(Hz) phase(deg) chi(pos)
0 0.00 1200.01 65 116 1.340 10000.000 0.000 0.154
1 3.00 1200.01 135 208 1.340 10000.000 0.000 0.154
2 6.00 1200.01 114 159 1.340 10000.000 0.000 0.154
3 9.00 1200.01 128 160 1.340 10000.000 0.000 0.154
4 12.00 1200.01 132 134 1.340 10000.000 0.000 0.154
5 15.00 1200.01 105 125 1.340 10000.000 0.000 0.154
6 18.00 1200.01 117 114 1.340 10000.000 0.000 0.154
7 21.00 1200.01 84 105 1.340 10000.000 0.000 0.154
8 24.00 1200.01 99 99 1.340 10000.000 0.000 0.154
9 27.00 1200.01 79 118 1.340 10000.000 0.000 0.154
10 30.00 1200.01 94 98 1.340 10000.000 0.000 0.154
11 33.00 1200.01 76 105 1.340 10000.000 0.000 0.154
12 36.00 1200.01 76 95 1.340 10000.000 0.000 0.154
13 39.00 1200.01 82 92 1.340 10000.000 0.000 0.154
14 42.00 1200.01 96 104 1.340 10000.000 0.000 0.154
15 45.00 1200.01 73 92 1.340 10000.000 0.000 0.154
16 48.00 1200.01 74 100 1.340 10000.000 0.000 0.154
17 51.00 1200.01 59 98 1.340 10000.000 0.000 0.154
18 54.00 1200.01 84 104 1.340 10000.000 0.000 0.154
19 57.00 1200.01 74 102 1.340 10000.000 0.000 0.154
20 60.00 1200.01 88 109 1.340 10000.000 0.000 0.154
21 63.00 1200.01 87 106 1.340 10000.000 0.000 0.154
22 66.00 1200.01 107 109 1.340 10000.000 0.000 0.154
23 69.00 1200.01 110 100 1.340 10000.000 0.000 0.154
24 72.00 1200.01 132 99 1.340 10000.000 0.000 0.154
25 75.00 1200.01 119 148 1.340 10000.000 0.000 0.154
26 78.00 1200.01 129 155 1.340 10000.000 0.000 0.154
27 81.00 1200.01 141 169 1.340 10000.000 0.000 0.154
28 84.00 1200.01 138 212 1.340 10000.000 0.000 0.154
29 87.00 1200.01 129 242 1.340 10000.000 0.000 0.154
30 90.00 1200.01 167 230 1.340 10000.000 0.000 0.154
31 93.00 1200.01 169 247 1.340 10000.000 0.000 0.154
32 96.00 1200.01 123 266 1.340 10000.000 0.000 0.154
33 99.00 1200.01 162 237 1.340 10000.000 0.000 0.154
34 102.00 1200.01 153 218 1.340 10000.000 0.000 0.154
35 105.00 1200.01 142 222 1.340 10000.000 0.000 0.154
36 108.00 1200.01 122 159 1.340 10000.000 0.000 0.154
37 111.00 1200.01 129 173 1.340 10000.000 0.000 0.154
38 114.00 1200.01 108 136 1.340 10000.000 0.000 0.154
39 117.00 1200.01 120 135 1.340 10000.000 0.000 0.154
40 120.00 1200.01 107 129 1.340 10000.000 0.000 0.154
41 123.00 1200.01 88 96 1.340 10000.000 0.000 0.154
42 126.00 1200.01 79 91 1.340 10000.000 0.000 0.154
43 129.00 1200.01 69 90 1.340 10000.000 0.000 0.154
44 132.00 1200.01 75 105 1.340 10000.000 0.000 0.154
45 135.00 1200.01 86 107 1.340 10000.000 0.000 0.154
46 138.00 1200.01 91 91 1.340 10000.000 0.000 0.154
47 141.00 1200.01 91 104 1.340 10000.000 0.000 0.154
48 144.00 1200.01 78 92 1.340 10000.000 0.000 0.154
49 147.00 1200.01 68 111 1.340 10000.000 0.000 0.154
50 150.00 1200.01 71 108 1.340 10000.000 0.000 0.154
51 153.00 1200.01 96 99 1.340 10000.000 0.000 0.154
52 156.00 1200.01 88 104 1.340 10000.000 0.000 0.154
53 159.00 1200.01 103 109 1.340 10000.000 0.000 0.154
54 162.00 1200.01 92 116 1.340 10000.000 0.000 0.154
55 165.00 1200.01 96 101 1.340 10000.000 0.000 0.154
56 168.00 1200.01 117 124 1.340 10000.000 0.000 0.154
57 171.00 1200.01 127 128 1.340 10000.000 0.000 0.154
58 174.00 1200.01 110 143 1.340 10000.000 0.000 0.154
59 177.00 1200.01 140 179 1.340 10000.000 0.000 0.154
60 180.00 1200.01 137 178 1.340 10000.000 0.000 0.154
61 183.00 1200.01 121 220 1.340 10000.000 0.000 0.154
62 186.00 1200.01 167 216 1.340 10000.000 0.000 0.154
63 189.00 1200.01 139 224 1.340 10000.000 0.000 0.154
64 192.00 1200.01 151 255 1.340 10000.000 0.000 0.154
65 195.00 1200.01 187 255 1.340 10000.000 0.000 0.154
66 198.00 1200.01 137 234 1.340 10000.000 0.000 0.154
67 201.00 1200.01 147 250 1.340 10000.000 0.000 0.154
68 204.00 1200.01 156 210 1.340 10000.000 0.000 0.154
69 207.00 1200.01 161 186 1.340 10000.000 0.000 0.154
70 210.00 1200.01 114 168 1.340 10000.000 0.000 0.154
71 213.00 1200.01 94 143 1.340 10000.000 0.000 0.154
72 216.00 1200.01 108 170 1.340 10000.000 0.000 0.154
73 219.00 1200.01 100 119 1.340 10000.000 0.000 0.154
74 222.00 1200.01 115 105 1.340 10000.000 0.000 0.154
75 225.00 1200.01 91 91 1.340 10000.000 0.000 0.154
76 228.00 1200.01 82 90 1.340 10000.000 0.000 0.154
77 231.00 1200.01 87 106 1.340 10000.000 0.000 0.154
78 234.00 1200.01 80 95 1.340 10000.000 0.000 0.154
79 237.00 1200.01 74 103 1.340 10000.000 0.000 0.154
80 240.00 1200.01 71 108 1.340 10000.000 0.000 0.154
81 243.00 1200.01 61 89 1.340 10000.000 0.000 0.154
82 246.00 1200.01 76 82 1.340 10000.000 0.000 0.154
83 249.00 1200.01 80 100 1.340 10000.000 0.000 0.154
84 252.00 1200.01 81 96 1.340 10000.000 0.000 0.154
85 255.00 1200.01 85 114 1.340 10000.000 0.000 0.154
86 258.00 1200.01 93 92 1.340 10000.000 0.000 0.154
87 261.00 1200.01 101 84 1.340 10000.000 0.000 0.154
88 264.00 1200.01 98 117 1.340 10000.000 0.000 0.154
89 267.00 1200.01 85 115 1.340 10000.000 0.000 0.154
90 270.00 1200.01 125 122 1.340 10000.000 0.000 0.154
91 273.00 1200.01 120 119 1.340 10000.000 0.000 0.154
92 276.00 1200.01 121 156 1.340 10000.000 0.000 0.154
93 279.00 1200.01 114 181 1.340 10000.000 0.000 0.154
94 282.00 1200.01 154 196 1.340 10000.000 0.000 0.154
95 285.00 1200.01 153 228 1.340 10000.000 0.000 0.154
96 288.00 1200.01 143 254 1.340 10000.000 0.000 0.154
97 291.00 1200.01 129 261 1.340 10000.000 0.000 0.154
98 294.00 1200.01 151 258 1.340 10000.000 0.000 0.154
99 297.00 1200.01 138 237 1.340 10000.000 0.000 0.154
100 300.00 1200.01 149 250 1.340 10000.000 0.000 0.154
101 303.00 1200.01 146 223 1.340 10000.000 0.000 0.154
102 306.00 1200.01 124 224 1.340 10000.000 0.000 0.154
103 309.00 1200.01 141 191 1.340 10000.000 0.000 0.154
104 312.00 1200.01 119 168 1.340 10000.000 0.000 0.154
105 315.00 1200.01 110 124 1.340 10000.000 0.000 0.154
106 318.00 1200.01 93 118 1.340 10000.000 0.000 0.154
107 321.00 1200.01 98 103 1.340 10000.000 0.000 0.154
108 324.00 1200.01 101 125 1.340 10000.000 0.000 0.154
109 327.00 1200.01 84 78 1.340 10000.000 0.000 0.154
110 330.00 1200.01 64 104 1.340 10000.000 0.000 0.154
111 333.00 1200.01 92 85 1.340 10000.000 0.000 0.154
112 336.00 1200.01 86 99 1.340 10000.000 0.000 0.154
113 339.00 1200.01 84 96 1.340 10000.000 0.000 0.154
114 342.00 1200.01 78 119 1.340 10000.000 0.000 0.154
115 345.00 1200.01 59 114 1.340 10000.000 0.000 0.154
116 348.00 1200.01 60 120 1.340 10000.000 0.000 0.154
117 351.00 1200.01 80 105 1.340 10000.000 0.000 0.154
118 354.00 1200.01 97 87 1.340 10000.000 0.000 0.154
119 357.00 1200.01 82 96 1.340 10000.000 0.000 0.154
120 360.00 1200.01 98 87 1.340 10000.000 0.000 0.154
121 363.00 1200.01 92 105 1.340 10000.000 0.000 0.154
122 366.00 1200.01 93 119 1.340 10000.000 0.000 0.154
123 369.00 1200.01 100 140 1.340 10000.000 0.000 0.154
124 372.00 1200.01 88 134 1.340 10000.000 0.000 0.154
125 375.00 1200.01 118 156 1.340 10000.000 0.000 0.154
126 378.00 1200.01 108 171 1.340 10000.000 0.000 0.154
127 381.00 1200.01 126 197 1.340 10000.000 0.000 0.154
128 384.00 1200.01 122 226 1.340 10000.000 0.000 0.154
129 387.00 1200.01 149 232 1.340 10000.000 0.000 0.154
130 390.00 1200.01 135 236 1.340 10000.000 0.000 0.154
131 393.00 1200.01 144 236 1.340 10000.000 0.000 0.154
132 396.00 1200.01 151 252 1.340 10000.000 0.000 0.154
133 399.00 1200.01 156 250 1.340 10000.000 0.000 0.154
134 402.00 1200.01 116 248 1.340 10000.000 0.000 0.154
