# BinNR microsec tot-time (s)  O-Beam AUX Ampl(V) f(Hz) phase(deg) chi(pos)
0 0.00 1200.01 109 352 1.340 10000.000 0.000 1.000
1 3.00 1200.01 216 745 1.340 10000.000 0.000 1.000
2 6.00 1200.01 219 809 1.340 10000.000 0.000 1.000
3 9.00 1200.01 234 865 1.340 10000.000 0.000 1.000
4 12.00 1200.01 254 875 1.340 10000.000 0.000 1.000
5 15.00 1200.01 269 859 1.340 10000.000 0.000 1.000
6 18.00 1200.01 286 934 1.340 10000.000 0.000 1.000
7 21.00 1200.01 287 994 1.340 10000.000 0.000 1.000
8 24.00 1200.01 302 985 1.340 10000.000 0.000 1.000
9 27.00 1200.01 280 1008 1.340 10000.000 0.000 1.000
10 30.00 1200.01 305 1011 1.340 10000.000 0.000 1.000
11 33.00 1200.01 342 955 1.340 10000.000 0.000 1.000
12 36.00 1200.01 312 974 1.340 10000.000 0.000 1.000
13 39.00 1200.01 295 972 1.340 10000.000 0.000 1.000
14 42.00 1200.01 283 1010 1.340 10000.000 0.000 1.000
15 45.00 1200.01 345 928 1.340 10000.000 0.000 1.000
16 48.00 1200.01 320 949 1.340 10000.000 0.000 1.000
17 51.00 1200.01 301 986 1.340 10000.000 0.000 1.000
18 54.00 1200.01 327 974 1.340 10000.000 0.000 1.000
19 57.00 1200.01 301 987 1.340 10000.000 0.000 1.000
20 60.00 1200.01 279 998 1.340 10000.000 0.000 1.000
21 63.00 1200.01 252 952 1.340 10000.000 0.000 1.000
22 66.00 1200.01 289 917 1.340 10000.000 0.000 1.000
23 69.00 1200.01 267 866 1.340 10000.000 0.000 1.000
24 72.00 1200.01 269 931 1.340 10000.000 0.000 1.000
25 75.00 1200.01 243 835 1.340 10000.000 0.000 1.000
26 78.00 1200.01 225 816 1.340 10000.000 0.000 1.000
27 81.00 1200.01 229 803 1.340 10000.000 0.000 1.000
28 84.00 1200.01 226 783 1.340 10000.000 0.000 1.000
29 87.00 1200.01 230 704 1.340 10000.000 0.000 1.000
30 90.00 1200.01 219 682 1.340 10000.000 0.000 1.000
31 93.00 1200.01 204 698 1.340 10000.000 0.000 1.000
32 96.00 1200.01 224 697 1.340 10000.000 0.000 1.000
33 99.00 1200.01 206 683 1.340 10000.000 0.000 1.000
34 102.00 1200.01 227 716 1.340 10000.000 0.000 1.000
35 105.00 1200.01 212 731 1.340 10000.000 0.000 1.000
36 108.00 1200.01 272 727 1.340 10000.000 0.000 1.000
37 111.00 1200.01 253 752 1.340 10000.000 0.000 1.000
38 114.00 1200.01 273 900 1.340 10000.000 0.000 1.000
39 117.00 1200.01 295 877 1.340 10000.000 0.000 1.000
40 120.00 1200.01 306 917 1.340 10000.000 0.000 1.000
41 123.00 1200.01 285 914 1.340 10000.000 0.000 1.000
42 126.00 1200.01 302 975 1.340 10000.000 0.000 1.000
43 129.00 1200.01 297 958 1.340 10000.000 0.000 1.000
44 132.00 1200.01 324 985 1.340 10000.000 0.000 1.000
45 135.00 1200.01 305 981 1.340 10000.000 0.000 1.000
46 138.00 1200.01 318 1058 1.340 10000.000 0.000 1.000
47 141.00 1200.01 307 1025 1.340 10000.000 0.000 1.000
48 144.00 1200.01 319 1045 1.340 10000.000 0.000 1.000
49 147.00 1200.01 314 1094 1.340 10000.000 0.000 1.000
50 150.00 1200.01 332 1036 1.340 10000.000 0.000 1.000
51 153.00 1200.01 304 1006 1.340 10000.000 0.000 1.000
52 156.00 1200.01 330 982 1.340 10000.000 0.000 1.000
53 159.00 1200.01 288 1014 1.340 10000.000 0.000 1.000
54 162.00 1200.01 290 1026 1.340 10000.000 0.000 1.000
55 165.00 1200.01 324 990 1.340 10000.000 0.000 1.000
56 168.00 1200.01 272 868 1.340 10000.000 0.000 1.000
57 171.00 1200.01 254 824 1.340 10000.000 0.000 1.000
58 174.00 1200.01 268 842 1.340 10000.000 0.000 1.000
59 177.00 1200.01 228 813 1.340 10000.000 0.000 1.000
60 180.00 1200.01 245 765 1.340 10000.000 0.000 1.000
61 183.00 1200.01 210 735 1.340 10000.000 0.000 1.000
62 186.00 1200.01 213 725 1.340 10000.000 0.000 1.000
63 189.00 1200.01 229 709 1.340 10000.000 0.000 1.000
64 192.00 1200.01 218 711 1.340 10000.000 0.000 1.000
65 195.00 1200.01 211 671 1.340 10000.000 0.000 1.000
66 198.00 1200.01 217 679 1.340 10000.000 0.000 1.000
67 201.00 1200.01 221 682 1.340 10000.000 0.000 1.000
68 204.00 1200.01 223 732 1.340 10000.000 0.000 1.000
69 207.00 1200.01 241 790 1.340 10000.000 0.000 1.000
70 210.00 1200.01 256 743 1.340 10000.000 0.000 1.000
71 213.00 1200.01 285 812 1.340 10000.000 0.000 1.000
72 216.00 1200.01 269 874 1.340 10000.000 0.000 1.000
73 219.00 1200.01 271 879 1.340 10000.000 0.000 1.000
74 222.00 1200.01 270 923 1.340 10000.000 0.000 1.000
75 225.00 1200.01 278 959 1.340 10000.000 0.000 1.000
76 228.00 1200.01 318 999 1.340 10000.000 0.000 1.000
77 231.00 1200.01 322 979 1.340 10000.000 0.000 1.000
78 234.00 1200.01 310 981 1.340 10000.000 0.000 1.000
79 237.00 1200.01 327 1022 1.340 10000.000 0.000 1.000
80 240.00 1200.01 332 983 1.340 10000.000 0.000 1.000
81 243.00 1200.01 322 1066 1.340 10000.000 0.000 1.000
82 246.00 1200.01 355 1020 1.340 10000.000 0.000 1.000
83 249.00 1200.01 322 985 1.340 10000.000 0.000 1.000
84 252.00 1200.01 326 1064 1.340 10000.000 0.000 1.000
85 255.00 1200.01 333 973 1.340 10000.000 0.000 1.000
86 258.00 1200.01 317 952 1.340 10000.000 0.000 1.000
87 261.00 1200.01 285 1013 1.340 10000.000 0.000 1.000
88 264.00 1200.01 289 965 1.340 10000.000 0.000 1.000
89 267.00 1200.01 284 913 1.340 10000.000 0.000 1.000
90 270.00 1200.01 303 876 1.340 10000.000 0.000 1.000
91 273.00 1200.01 255 877 1.340 10000.000 0.000 1.000
92 276.00 1200.01 252 789 1.340 10000.000 0.000 1.000
93 279.00 1200.01 245 770 1.340 10000.000 0.000 1.000
94 282.00 1200.01 204 777 1.340 10000.000 0.000 1.000
95 285.00 1200.01 252 683 1.340 10000.000 0.000 1.000
96 288.00 1200.01 219 701 1.340 10000.000 0.000 1.000
97 291.00 1200.01 210 728 1.340 10000.000 0.000 1.000
98 294.00 1200.01 200 714 1.340 10000.000 0.000 1.000
99 297.00 1200.01 219 727 1.340 10000.000 0.000 1.000
100 300.00 1200.01 209 705 1.340 10000.000 0.000 1.000
101 303.00 1200.01 227 713 1.340 10000.000 0.000 1.000
102 306.00 1200.01 243 744 1.340 10000.000 0.000 1.000
103 309.00 1200.01 227 751 1.340 10000.000 0.000 1.000
104 312.00 1200.01 248 811 1.340 10000.000 0.000 1.000
105 315.00 1200.01 287 861 1.340 10000.000 0.000 1.000
106 318.00 1200.01 251 861 1.340 10000.000 0.000 1.000
107 321.00 1200.01 307 904 1.340 10000.000 0.000 1.000
108 324.00 1200.01 306 920 1.340 10000.000 0.000 1.000
109 327.00 1200.01 306 972 1.340 10000.000 0.000 1.000
110 330.00 1200.01 314 972 1.340 10000.000 0.000 1.000
111 333.00 1200.01 320 989 1.340 10000.000 0.000 1.000
112 336.00 1200.01 323 1009 1.340 10000.000 0.000 1.000
113 339.00 1200.01 315 1004 1.340 10000.000 0.000 1.000
114 342.00 1200.01 304 992 1.340 10000.000 0.000 1.000
115 345.00 1200.01 293 1005 1.340 10000.000 0.000 1.000
116 348.00 1200.01 311 1000 1.340 10000.000 0.000 1.000
117 351.00 1200.01 337 1027 1.340 10000.000 0.000 1.000
118 354.00 1200.01 297 1011 1.340 10000.000 0.000 1.000
119 357.00 1200.01 301 976 1.340 10000.000 0.000 1.000
120 360.00 1200.01 322 1017 1.340 10000.000 0.000 1.000
121 363.00 1200.01 291 955 1.340 10000.000 0.000 1.000
122 366.00 1200.01 269 891 1.340 10000.000 0.000 1.000
123 369.00 1200.01 299 922 1.340 10000.000 0.000 1.000
124 372.00 1200.01 295 879 1.340 10000.000 0.000 1.000
125 375.00 1200.01 280 838 1.340 10000.000 0.000 1.000
126 378.00 1200.01 251 843 1.340 10000.000 0.000 1.000
127 381.00 1200.01 217 792 1.340 10000.000 0.000 1.000
128 384.00 1200.01 226 761 1.340 10000.000 0.000 1.000
129 387.00 1200.01 220 678 1.340 10000.000 0.000 1.000
130 390.00 1200.01 241 678 1.340 10000.000 0.000 1.000
131 393.00 1200.01 211 715 1.340 10000.000 0.000 1.000
132 396.00 1200.01 214 715 1.340 10000.000 0.000 1.000
133 399.00 1200.01 211 677 1.340 10000.000 0.000 1.000
134 402.00 1200.01 215 672 1.340 10000.000 0.000 1.000
