# BinNR microsec tot-time (s)  O-Beam AUX Ampl(V) f(Hz) phase(deg) chi(pos)
0 0.00 1200.01 37 50 1.340 10000.000 0.000 0.505
1 3.00 1200.01 69 124 1.340 10000.000 0.000 0.505
2 6.00 1200.01 71 110 1.340 10000.000 0.000 0.505
3 9.00 1200.01 86 158 1.340 10000.000 0.000 0.505
4 12.00 1200.01 60 165 1.340 10000.000 0.000 0.505
5 15.00 1200.01 82 202 1.340 10000.000 0.000 0.505
6 18.00 1200.01 84 198 1.340 10000.000 0.000 0.505
7 21.00 1200.01 89 282 1.340 10000.000 0.000 0.505
8 24.00 1200.01 108 287 1.340 10000.000 0.000 0.505
9 27.00 1200.01 86 329 1.340 10000.000 0.000 0.505
10 30.00 1200.01 102 330 1.340 10000.000 0.000 0.505
11 33.00 1200.01 105 346 1.340 10000.000 0.000 0.505
12 36.00 1200.01 112 333 1.340 10000.000 0.000 0.505
13 39.00 1200.01 117 324 1.340 10000.000 0.000 0.505
14 42.00 1200.01 117 373 1.340 10000.000 0.000 0.505
15 45.00 1200.01 113 316 1.340 10000.000 0.000 0.505
16 48.00 1200.01 83 306 1.340 10000.000 0.000 0.505
17 51.00 1200.01 106 338 1.340 10000.000 0.000 0.505
18 54.00 1200.01 100 330 1.340 10000.000 0.000 0.505
19 57.00 1200.01 112 285 1.340 10000.000 0.000 0.505
20 60.00 1200.01 94 315 1.340 10000.000 0.000 0.505
21 63.00 1200.01 80 253 1.340 10000.000 0.000 0.505
22 66.00 1200.01 89 249 1.340 10000.000 0.000 0.505
23 69.00 1200.01 83 234 1.340 10000.000 0.000 0.505
24 72.00 1200.01 76 190 1.340 10000.000 0.000 0.505
25 75.00 1200.01 75 173 1.340 10000.000 0.000 0.505
26 78.00 1200.01 59 139 1.340 10000.000 0.000 0.505
27 81.00 1200.01 77 144 1.340 10000.000 0.000 0.505
28 84.00 1200.01 73 125 1.340 10000.000 0.000 0.505
29 87.00 1200.01 96 109 1.340 10000.000 0.000 0.505
30 90.00 1200.01 79 110 1.340 10000.000 0.000 0.505
31 93.00 1200.01 73 103 1.340 10000.000 0.000 0.505
32 96.00 1200.01 81 107 1.340 10000.000 0.000 0.505
33 99.00 1200.01 82 118 1.340 10000.000 0.000 0.505
34 102.00 1200.01 66 113 1.340 10000.000 0.000 0.505
35 105.00 1200.01 67 128 1.340 10000.000 0.000 0.505
36 108.00 1200.01 85 111 1.340 10000.000 0.000 0.505
37 111.00 1200.01 73 155 1.340 10000.000 0.000 0.505
38 114.00 1200.01 84 193 1.340 10000.000 0.000 0.505
39 117.00 1200.01 92 172 1.340 10000.000 0.000 0.505
40 120.00 1200.01 112 191 1.340 10000.000 0.000 0.505
41 123.00 1200.01 108 245 1.340 10000.000 0.000 0.505
42 126.00 1200.01 87 259 1.340 10000.000 0.000 0.505
43 129.00 1200.01 120 286 1.340 10000.000 0.000 0.505
44 132.00 1200.01 117 328 1.340 10000.000 0.000 0.505
45 135.00 1200.01 117 315 1.340 10000.000 0.000 0.505
46 138.00 1200.01 107 367 1.340 10000.000 0.000 0.505
47 141.00 1200.01 102 378 1.340 10000.000 0.000 0.505
48 144.00 1200.01 122 396 1.340 10000.000 0.000 0.505
49 147.00 1200.01 126 363 1.340 10000.000 0.000 0.505
50 150.00 1200.01 107 399 1.340 10000.000 0.000 0.505
51 153.00 1200.01 93 381 1.340 10000.000 0.000 0.505
52 156.00 1200.01 94 335 1.340 10000.000 0.000 0.505
53 159.00 1200.01 88 285 1.340 10000.000 0.000 0.505
54 162.00 1200.01 84 282 1.340 10000.000 0.000 0.505
55 165.00 1200.01 70 258 1.340 10000.000 0.000 0.505
56 168.00 1200.01 80 233 1.340 10000.000 0.000 0.505
57 171.00 1200.01 75 179 1.340 10000.000 0.000 0.505
58 174.00 1200.01 72 184 1.340 10000.000 0.000 0.505
59 177.00 1200.01 62 144 1.340 10000.000 0.000 0.505
60 180.00 1200.01 62 157 1.340 10000.000 0.000 0.505
61 183.00 1200.01 81 130 1.340 10000.000 0.000 0.505
62 186.00 1200.01 77 101 1.340 10000.000 0.000 0.505
63 189.00 1200.01 75 113 1.340 10000.000 0.000 0.505
64 192.00 1200.01 62 98 1.340 10000.000 0.000 0.505
65 195.00 1200.01 77 88 1.340 10000.000 0.000 0.505
66 198.00 1200.01 80 107 1.340 10000.000 0.000 0.505
67 201.00 1200.01 64 112 1.340 10000.000 0.000 0.505
68 204.00 1200.01 70 125 1.340 10000.000 0.000 0.505
69 207.00 1200.01 75 126 1.340 10000.000 0.000 0.505
70 210.00 1200.01 65 144 1.340 10000.000 0.000 0.505
71 213.00 1200.01 78 150 1.340 10000.000 0.000 0.505
72 216.00 1200.01 76 151 1.340 10000.000 0.000 0.505
73 219.00 1200.01 70 220 1.340 10000.000 0.000 0.505
74 222.00 1200.01 84 247 1.340 10000.000 0.000 0.505
75 225.00 1200.01 104 276 1.340 10000.000 0.000 0.505
76 228.00 1200.01 115 264 1.340 10000.000 0.000 0.505
77 231.00 1200.01 110 295 1.340 10000.000 0.000 0.505
78 234.00 1200.01 95 353 1.340 10000.000 0.000 0.505
79 237.00 1200.01 110 377 1.340 10000.000 0.000 0.505
80 240.00 1200.01 93 378 1.340 10000.000 0.000 0.505
81 243.00 1200.01 111 415 1.340 10000.000 0.000 0.505
82 246.00 1200.01 97 434 1.340 10000.000 0.000 0.505
83 249.00 1200.01 118 365 1.340 10000.000 0.000 0.505
84 252.00 1200.01 90 349 1.340 10000.000 0.000 0.505
85 255.00 1200.01 99 350 1.340 10000.000 0.000 0.505
86 258.00 1200.01 94 309 1.340 10000.000 0.000 0.505
87 261.00 1200.01 92 281 1.340 10000.000 0.000 0.505
88 264.00 1200.01 83 303 1.340 10000.000 0.000 0.505
89 267.00 1200.01 79 218 1.340 10000.000 0.000 0.505
90 270.00 1200.01 75 202 1.340 10000.000 0.000 0.505
91 273.00 1200.01 82 170 1.340 10000.000 0.000 0.505
92 276.00 1200.01 76 155 1.340 10000.000 0.000 0.505
93 279.00 1200.01 70 160 1.340 10000.000 0.000 0.505
94 282.00 1200.01 81 126 1.340 10000.000 0.000 0.505
95 285.00 1200.01 79 107 1.340 10000.000 0.000 0.505
96 288.00 1200.01 88 105 1.340 10000.000 0.000 0.505
97 291.00 1200.01 81 102 1.340 10000.000 0.000 0.505
98 294.00 1200.01 75 119 1.340 10000.000 0.000 0.505
99 297.00 1200.01 71 100 1.340 10000.000 0.000 0.505
100 300.00 1200.01 66 120 1.340 10000.000 0.000 0.505
101 303.00 1200.01 64 102 1.340 10000.000 0.000 0.505
102 306.00 1200.01 72 111 1.340 10000.000 0.000 0.505
103 309.00 1200.01 58 134 1.340 10000.000 0.000 0.505
104 312.00 1200.01 66 154 1.340 10000.000 0.000 0.505
105 315.00 1200.01 86 159 1.340 10000.000 0.000 0.505
106 318.00 1200.01 96 184 1.340 10000.000 0.000 0.505
107 321.00 1200.01 79 211 1.340 10000.000 0.000 0.505
108 324.00 1200.01 86 234 1.340 10000.000 0.000 0.505
109 327.00 1200.01 84 262 1.340 10000.000 0.000 0.505
110 330.00 1200.01 115 312 1.340 10000.000 0.000 0.505
111 333.00 1200.01 86 329 1.340 10000.000 0.000 0.505
112 336.00 1200.01 110 366 1.340 10000.000 0.000 0.505
113 339.00 1200.01 107 383 1.340 10000.000 0.000 0.505
114 342.00 1200.01 115 413 1.340 10000.000 0.000 0.505
115 345.00 1200.01 85 404 1.340 10000.000 0.000 0.505
116 348.00 1200.01 99 377 1.340 10000.000 0.000 0.505
117 351.00 1200.01 105 373 1.340 10000.000 0.000 0.505
118 354.00 1200.01 93 367 1.340 10000.000 0.000 0.505
119 357.00 1200.01 103 327 1.340 10000.000 0.000 0.505
120 360.00 1200.01 91 304 1.340 10000.000 0.000 0.505
121 363.00 1200.01 80 270 1.340 10000.000 0.000 0.505
122 366.00 1200.01 83 212 1.340 10000.000 0.000 0.505
123 369.00 1200.01 71 197 1.340 10000.000 0.000 0.505
124 372.00 1200.01 78 188 1.340 10000.000 0.000 0.505
125 375.00 1200.01 64 172 1.340 10000.000 0.000 0.505
126 378.00 1200.01 52 137 1.340 10000.000 0.000 0.505
127 381.00 1200.01 84 136 1.340 10000.000 0.000 0.505
128 384.00 1200.01 57 117 1.340 10000.000 0.000 0.505
129 387.00 1200.01 70 123 1.340 10000.000 0.000 0.505
130 390.00 1200.01 71 103 1.340 10000.000 0.000 0.505
131 393.00 1200.01 75 84 1.340 10000.000 0.000 0.505
132 396.00 1200.01 88 109 1.340 10000.000 0.000 0.505
133 399.00 1200.01 80 92 1.340 10000.000 0.000 0.505
134 402.00 1200.01 67 93 1.340 10000.000 0.000 0.505
