# BinNR microsec tot-time (s)  O-Beam AUX Ampl(V) f(Hz) phase(deg) chi(pos)
0 0.00 1200.00 50 139 1.340 10000.000 0.000 -1.329
1 3.00 1200.00 107 330 1.340 10000.000 0.000 -1.329
2 6.00 1200.00 112 395 1.340 10000.000 0.000 -1.329
3 9.00 1200.00 114 393 1.340 10000.000 0.000 -1.329
4 12.00 1200.00 140 442 1.340 10000.000 0.000 -1.329
5 15.00 1200.00 123 466 1.340 10000.000 0.000 -1.329
6 18.00 1200.00 131 501 1.340 10000.000 0.000 -1.329
7 21.00 1200.00 152 560 1.340 10000.000 0.000 -1.329
8 24.00 1200.00 156 593 1.340 10000.000 0.000 -1.329
9 27.00 1200.00 186 569 1.340 10000.000 0.000 -1.329
10 30.00 1200.00 180 658 1.340 10000.000 0.000 -1.329
11 33.00 1200.00 169 660 1.340 10000.000 0.000 -1.329
12 36.00 1200.00 173 660 1.340 10000.000 0.000 -1.329
13 39.00 1200.00 182 641 1.340 10000.000 0.000 -1.329
14 42.00 1200.00 168 671 1.340 10000.000 0.000 -1.329
15 45.00 1200.00 187 688 1.340 10000.000 0.000 -1.329
16 48.00 1200.00 181 613 1.340 10000.000 0.000 -1.329
17 51.00 1200.00 182 633 1.340 10000.000 0.000 -1.329
18 54.00 1200.00 177 603 1.340 10000.000 0.000 -1.329
19 57.00 1200.00 164 648 1.340 10000.000 0.000 -1.329
20 60.00 1200.00 164 551 1.340 10000.000 0.000 -1.329
21 63.00 1200.00 159 549 1.340 10000.000 0.000 -1.329
22 66.00 1200.00 148 520 1.340 10000.000 0.000 -1.329
23 69.00 1200.00 148 487 1.340 10000.000 0.000 -1.329
24 72.00 1200.00 126 473 1.340 10000.000 0.000 -1.329
25 75.00 1200.00 110 400 1.340 10000.000 0.000 -1.329
26 78.00 1200.00 109 376 1.340 10000.000 0.000 -1.329
27 81.00 1200.00 85 341 1.340 10000.000 0.000 -1.329
28 84.00 1200.00 86 322 1.340 10000.000 0.000 -1.329
29 87.00 1200.00 92 325 1.340 10000.000 0.000 -1.329
30 90.00 1200.00 86 276 1.340 10000.000 0.000 -1.329
31 93.00 1200.00 101 258 1.340 10000.000 0.000 -1.329
32 96.00 1200.00 103 291 1.340 10000.000 0.000 -1.329
33 99.00 1200.00 103 278 1.340 10000.000 0.000 -1.329
34 102.00 1200.00 98 292 1.340 10000.000 0.000 -1.329
35 105.00 1200.00 89 290 1.340 10000.000 0.000 -1.329
36 108.00 1200.00 117 338 1.340 10000.000 0.000 -1.329
37 111.00 1200.00 142 374 1.340 10000.000 0.000 -1.329
38 114.00 1200.00 128 378 1.340 10000.000 0.000 -1.329
39 117.00 1200.00 134 422 1.340 10000.000 0.000 -1.329
40 120.00 1200.00 155 453 1.340 10000.000 0.000 -1.329
41 123.00 1200.00 172 508 1.340 10000.000 0.000 -1.329
42 126.00 1200.00 185 610 1.340 10000.000 0.000 -1.329
43 129.00 1200.00 204 632 1.340 10000.000 0.000 -1.329
44 132.00 1200.00 198 635 1.340 10000.000 0.000 -1.329
45 135.00 1200.00 204 689 1.340 10000.000 0.000 -1.329
46 138.00 1200.00 223 707 1.340 10000.000 0.000 -1.329
47 141.00 1200.00 187 717 1.340 10000.000 0.000 -1.329
48 144.00 1200.00 191 694 1.340 10000.000 0.000 -1.329
49 147.00 1200.00 196 706 1.340 10000.000 0.000 -1.329
50 150.00 1200.00 197 682 1.340 10000.000 0.000 -1.329
51 153.00 1200.00 166 643 1.340 10000.000 0.000 -1.329
52 156.00 1200.00 163 683 1.340 10000.000 0.000 -1.329
53 159.00 1200.00 162 612 1.340 10000.000 0.000 -1.329
54 162.00 1200.00 159 569 1.340 10000.000 0.000 -1.329
55 165.00 1200.00 142 548 1.340 10000.000 0.000 -1.329
56 168.00 1200.00 132 458 1.340 10000.000 0.000 -1.329
57 171.00 1200.00 131 439 1.340 10000.000 0.000 -1.329
58 174.00 1200.00 111 447 1.340 10000.000 0.000 -1.329
59 177.00 1200.00 120 387 1.340 10000.000 0.000 -1.329
60 180.00 1200.00 118 362 1.340 10000.000 0.000 -1.329
61 183.00 1200.00 88 290 1.340 10000.000 0.000 -1.329
62 186.00 1200.00 86 310 1.340 10000.000 0.000 -1.329
63 189.00 1200.00 78 301 1.340 10000.000 0.000 -1.329
64 192.00 1200.00 86 303 1.340 10000.000 0.000 -1.329
65 195.00 1200.00 109 269 1.340 10000.000 0.000 -1.329
66 198.00 1200.00 98 289 1.340 10000.000 0.000 -1.329
67 201.00 1200.00 83 282 1.340 10000.000 0.000 -1.329
68 204.00 1200.00 102 305 1.340 10000.000 0.000 -1.329
69 207.00 1200.00 127 311 1.340 10000.000 0.000 -1.329
70 210.00 1200.00 122 371 1.340 10000.000 0.000 -1.329
71 213.00 1200.00 132 367 1.340 10000.000 0.000 -1.329
72 216.00 1200.00 131 451 1.340 10000.000 0.000 -1.329
73 219.00 1200.00 146 503 1.340 10000.000 0.000 -1.329
74 222.00 1200.00 165 459 1.340 10000.000 0.000 -1.329
75 225.00 1200.00 185 514 1.340 10000.000 0.000 -1.329
76 228.00 1200.00 209 604 1.340 10000.000 0.000 -1.329
77 231.00 1200.00 178 627 1.340 10000.000 0.000 -1.329
78 234.00 1200.00 160 673 1.340 10000.000 0.000 -1.329
79 237.00 1200.00 165 644 1.340 10000.000 0.000 -1.329
80 240.00 1200.00 197 656 1.340 10000.000 0.000 -1.329
81 243.00 1200.00 215 699 1.340 10000.000 0.000 -1.329
82 246.00 1200.00 182 700 1.340 10000.000 0.000 -1.329
83 249.00 1200.00 177 672 1.340 10000.000 0.000 -1.329
84 252.00 1200.00 174 702 1.340 10000.000 0.000 -1.329
85 255.00 1200.00 172 656 1.340 10000.000 0.000 -1.329
86 258.00 1200.00 169 610 1.340 10000.000 0.000 -1.329
87 261.00 1200.00 152 548 1.340 10000.000 0.000 -1.329
88 264.00 1200.00 174 572 1.340 10000.000 0.000 -1.329
89 267.00 1200.00 150 535 1.340 10000.000 0.000 -1.329
90 270.00 1200.00 132 492 1.340 10000.000 0.000 -1.329
91 273.00 1200.00 114 418 1.340 10000.000 0.000 -1.329
92 276.00 1200.00 123 373 1.340 10000.000 0.000 -1.329
93 279.00 1200.00 102 360 1.340 10000.000 0.000 -1.329
94 282.00 1200.00 97 343 1.340 10000.000 0.000 -1.329
95 285.00 1200.00 116 261 1.340 10000.000 0.000 -1.329
96 288.00 1200.00 85 298 1.340 10000.000 0.000 -1.329
97 291.00 1200.00 105 271 1.340 10000.000 0.000 -1.329
98 294.00 1200.00 121 282 1.340 10000.000 0.000 -1.329
99 297.00 1200.00 98 247 1.340 10000.000 0.000 -1.329
100 300.00 1200.00 119 289 1.340 10000.000 0.000 -1.329
101 303.00 1200.00 100 268 1.340 10000.000 0.000 -1.329
102 306.00 1200.00 106 333 1.340 10000.000 0.000 -1.329
103 309.00 1200.00 128 298 1.340 10000.000 0.000 -1.329
104 312.00 1200.00 133 394 1.340 10000.000 0.000 -1.329
105 315.00 1200.00 152 418 1.340 10000.000 0.000 -1.329
106 318.00 1200.00 167 455 1.340 10000.000 0.000 -1.329
107 321.00 1200.00 161 455 1.340 10000.000 0.000 -1.329
108 324.00 1200.00 159 566 1.340 10000.000 0.000 -1.329
109 327.00 1200.00 178 614 1.340 10000.000 0.000 -1.329
110 330.00 1200.00 175 660 1.340 10000.000 0.000 -1.329
111 333.00 1200.00 188 647 1.340 10000.000 0.000 -1.329
112 336.00 1200.00 207 700 1.340 10000.000 0.000 -1.329
113 339.00 1200.00 192 647 1.340 10000.000 0.000 -1.329
114 342.00 1200.00 203 722 1.340 10000.000 0.000 -1.329
115 345.00 1200.00 175 683 1.340 10000.000 0.000 -1.329
116 348.00 1200.00 180 734 1.340 10000.000 0.000 -1.329
117 351.00 1200.00 168 682 1.340 10000.000 0.000 -1.329
118 354.00 1200.00 179 650 1.340 10000.000 0.000 -1.329
119 357.00 1200.00 184 636 1.340 10000.000 0.000 -1.329
120 360.00 1200.00 154 592 1.340 10000.000 0.000 -1.329
121 363.00 1200.00 163 574 1.340 10000.000 0.000 -1.329
122 366.00 1200.00 165 538 1.340 10000.000 0.000 -1.329
123 369.00 1200.00 149 469 1.340 10000.000 0.000 -1.329
124 372.00 1200.00 146 467 1.340 10000.000 0.000 -1.329
125 375.00 1200.00 142 398 1.340 10000.000 0.000 -1.329
126 378.00 1200.00 105 364 1.340 10000.000 0.000 -1.329
127 381.00 1200.00 102 303 1.340 10000.000 0.000 -1.329
128 384.00 1200.00 119 299 1.340 10000.000 0.000 -1.329
129 387.00 1200.00 95 291 1.340 10000.000 0.000 -1.329
130 390.00 1200.00 105 280 1.340 10000.000 0.000 -1.329
131 393.00 1200.00 102 243 1.340 10000.000 0.000 -1.329
132 396.00 1200.00 102 291 1.340 10000.000 0.000 -1.329
133 399.00 1200.00 110 273 1.340 10000.000 0.000 -1.329
134 402.00 1200.00 97 284 1.340 10000.000 0.000 -1.329
