# BinNR microsec tot-time (s)  O-Beam AUX Ampl(V) f(Hz) phase(deg) chi(pos)
0 0.00 4508.65 94 165 1.340 10000.000 0.000 0.659
1 3.00 4508.65 174 327 1.340 10000.000 0.000 0.659
2 6.00 4508.65 185 372 1.340 10000.000 0.000 0.659
3 9.00 4508.65 221 364 1.340 10000.000 0.000 0.659
4 12.00 4508.65 212 408 1.340 10000.000 0.000 0.659
5 15.00 4508.65 256 456 1.340 10000.000 0.000 0.659
6 18.00 4508.65 245 538 1.340 10000.000 0.000 0.659
7 21.00 4508.65 257 562 1.340 10000.000 0.000 0.659
8 24.00 4508.65 294 624 1.340 10000.000 0.000 0.659
9 27.00 4508.65 309 679 1.340 10000.000 0.000 0.659
10 30.00 4508.65 332 747 1.340 10000.000 0.000 0.659
11 33.00 4508.65 333 757 1.340 10000.000 0.000 0.659
12 36.00 4508.65 340 755 1.340 10000.000 0.000 0.659
13 39.00 4508.65 311 709 1.340 10000.000 0.000 0.659
14 42.00 4508.65 345 716 1.340 10000.000 0.000 0.659
15 45.00 4508.65 344 705 1.340 10000.000 0.000 0.659
16 48.00 4508.65 346 730 1.340 10000.000 0.000 0.659
17 51.00 4508.65 325 685 1.340 10000.000 0.000 0.659
18 54.00 4508.65 322 653 1.340 10000.000 0.000 0.659
19 57.00 4508.65 296 604 1.340 10000.000 0.000 0.659
20 60.00 4508.65 268 585 1.340 10000.000 0.000 0.659
21 63.00 4508.65 235 588 1.340 10000.000 0.000 0.659
22 66.00 4508.65 229 576 1.340 10000.000 0.000 0.659
23 69.00 4508.65 202 550 1.340 10000.000 0.000 0.659
24 72.00 4508.65 234 513 1.340 10000.000 0.000 0.659
25 75.00 4508.65 188 423 1.340 10000.000 0.000 0.659
26 78.00 4508.65 186 405 1.340 10000.000 0.000 0.659
27 81.00 4508.65 172 339 1.340 10000.000 0.000 0.659
28 84.00 4508.65 170 327 1.340 10000.000 0.000 0.659
29 87.00 4508.65 148 265 1.340 10000.000 0.000 0.659
30 90.00 4508.65 156 281 1.340 10000.000 0.000 0.659
31 93.00 4508.65 184 253 1.340 10000.000 0.000 0.659
32 96.00 4508.65 152 277 1.340 10000.000 0.000 0.659
33 99.00 4508.65 177 229 1.340 10000.000 0.000 0.659
34 102.00 4508.65 168 303 1.340 10000.000 0.000 0.659
35 105.00 4508.65 187 307 1.340 10000.000 0.000 0.659
36 108.00 4508.65 189 345 1.340 10000.000 0.000 0.659
37 111.00 4508.65 211 378 1.340 10000.000 0.000 0.659
38 114.00 4508.65 215 369 1.340 10000.000 0.000 0.659
39 117.00 4508.65 230 402 1.340 10000.000 0.000 0.659
40 120.00 4508.65 242 512 1.340 10000.000 0.000 0.659
41 123.00 4508.65 272 572 1.340 10000.000 0.000 0.659
42 126.00 4508.65 289 609 1.340 10000.000 0.000 0.659
43 129.00 4508.65 307 637 1.340 10000.000 0.000 0.659
44 132.00 4508.65 303 645 1.340 10000.000 0.000 0.659
45 135.00 4508.65 329 698 1.340 10000.000 0.000 0.659
46 138.00 4508.65 349 763 1.340 10000.000 0.000 0.659
47 141.00 4508.65 353 767 1.340 10000.000 0.000 0.659
48 144.00 4508.65 367 733 1.340 10000.000 0.000 0.659
49 147.00 4508.65 347 792 1.340 10000.000 0.000 0.659
50 150.00 4508.65 317 776 1.340 10000.000 0.000 0.659
51 153.00 4508.65 293 712 1.340 10000.000 0.000 0.659
52 156.00 4508.65 336 686 1.340 10000.000 0.000 0.659
53 159.00 4508.65 273 683 1.340 10000.000 0.000 0.659
54 162.00 4508.65 266 652 1.340 10000.000 0.000 0.659
55 165.00 4508.65 241 599 1.340 10000.000 0.000 0.659
56 168.00 4508.65 248 520 1.340 10000.000 0.000 0.659
57 171.00 4508.65 205 477 1.340 10000.000 0.000 0.659
58 174.00 4508.65 189 474 1.340 10000.000 0.000 0.659
59 177.00 4508.65 195 376 1.340 10000.000 0.000 0.659
60 180.00 4508.65 186 345 1.340 10000.000 0.000 0.659
61 183.00 4508.65 170 305 1.340 10000.000 0.000 0.659
62 186.00 4508.65 173 304 1.340 10000.000 0.000 0.659
63 189.00 4508.65 188 281 1.340 10000.000 0.000 0.659
64 192.00 4508.65 199 276 1.340 10000.000 0.000 0.659
65 195.00 4508.65 167 258 1.340 10000.000 0.000 0.659
66 198.00 4508.65 194 298 1.340 10000.000 0.000 0.659
67 201.00 4508.65 144 258 1.340 10000.000 0.000 0.659
68 204.00 4508.65 181 302 1.340 10000.000 0.000 0.659
69 207.00 4508.65 175 338 1.340 10000.000 0.000 0.659
70 210.00 4508.65 211 388 1.340 10000.000 0.000 0.659
71 213.00 4508.65 225 396 1.340 10000.000 0.000 0.659
72 216.00 4508.65 239 423 1.340 10000.000 0.000 0.659
73 219.00 4508.65 250 490 1.340 10000.000 0.000 0.659
74 222.00 4508.65 252 551 1.340 10000.000 0.000 0.659
75 225.00 4508.65 307 584 1.340 10000.000 0.000 0.659
76 228.00 4508.65 336 633 1.340 10000.000 0.000 0.659
77 231.00 4508.65 323 698 1.340 10000.000 0.000 0.659
78 234.00 4508.65 315 674 1.340 10000.000 0.000 0.659
79 237.00 4508.65 328 769 1.340 10000.000 0.000 0.659
80 240.00 4508.65 352 749 1.340 10000.000 0.000 0.659
81 243.00 4508.65 323 778 1.340 10000.000 0.000 0.659
82 246.00 4508.65 355 784 1.340 10000.000 0.000 0.659
83 249.00 4508.65 334 770 1.340 10000.000 0.000 0.659
84 252.00 4508.65 333 757 1.340 10000.000 0.000 0.659
85 255.00 4508.65 323 690 1.340 10000.000 0.000 0.659
86 258.00 4508.65 292 750 1.340 10000.000 0.000 0.659
87 261.00 4508.65 279 655 1.340 10000.000 0.000 0.659
88 264.00 4508.65 259 590 1.340 10000.000 0.000 0.659
89 267.00 4508.65 241 520 1.340 10000.000 0.000 0.659
90 270.00 4508.65 226 489 1.340 10000.000 0.000 0.659
91 273.00 4508.65 244 470 1.340 10000.000 0.000 0.659
92 276.00 4508.65 167 430 1.340 10000.000 0.000 0.659
93 279.00 4508.65 190 343 1.340 10000.000 0.000 0.659
94 282.00 4508.65 185 345 1.340 10000.000 0.000 0.659
95 285.00 4508.65 167 271 1.340 10000.000 0.000 0.659
96 288.00 4508.65 181 296 1.340 10000.000 0.000 0.659
97 291.00 4508.65 156 277 1.340 10000.000 0.000 0.659
98 294.00 4508.65 171 275 1.340 10000.000 0.000 0.659
99 297.00 4508.65 181 223 1.340 10000.000 0.000 0.659
100 300.00 4508.65 180 281 1.340 10000.000 0.000 0.659
101 303.00 4508.65 185 300 1.340 10000.000 0.000 0.659
102 306.00 4508.65 201 314 1.340 10000.000 0.000 0.659
103 309.00 4508.65 215 361 1.340 10000.000 0.000 0.659
104 312.00 4508.65 201 376 1.340 10000.000 0.000 0.659
105 315.00 4508.65 232 399 1.340 10000.000 0.000 0.659
106 318.00 4508.65 268 456 1.340 10000.000 0.000 0.659
107 321.00 4508.65 247 512 1.340 10000.000 0.000 0.659
108 324.00 4508.65 254 540 1.340 10000.000 0.000 0.659
109 327.00 4508.65 287 631 1.340 10000.000 0.000 0.659
110 330.00 4508.65 303 623 1.340 10000.000 0.000 0.659
111 333.00 4508.65 308 735 1.340 10000.000 0.000 0.659
112 336.00 4508.65 309 690 1.340 10000.000 0.000 0.659
113 339.00 4508.65 325 794 1.340 10000.000 0.000 0.659
114 342.00 4508.65 354 731 1.340 10000.000 0.000 0.659
115 345.00 4508.65 316 786 1.340 10000.000 0.000 0.659
116 348.00 4508.65 319 767 1.340 10000.000 0.000 0.659
117 351.00 4508.65 306 786 1.340 10000.000 0.000 0.659
118 354.00 4508.65 298 729 1.340 10000.000 0.000 0.659
119 357.00 4508.65 316 677 1.340 10000.000 0.000 0.659
120 360.00 4508.65 313 647 1.340 10000.000 0.000 0.659
121 363.00 4508.65 296 681 1.340 10000.000 0.000 0.659
122 366.00 4508.65 249 585 1.340 10000.000 0.000 0.659
123 369.00 4508.65 247 536 1.340 10000.000 0.000 0.659
124 372.00 4508.65 239 492 1.340 10000.000 0.000 0.659
125 375.00 4508.65 210 460 1.340 10000.000 0.000 0.659
126 378.00 4508.65 204 387 1.340 10000.000 0.000 0.659
127 381.00 4508.65 195 314 1.340 10000.000 0.000 0.659
128 384.00 4508.65 176 343 1.340 10000.000 0.000 0.659
129 387.00 4508.65 171 271 1.340 10000.000 0.000 0.659
130 390.00 4508.65 212 271 1.340 10000.000 0.000 0.659
131 393.00 4508.65 167 274 1.340 10000.000 0.000 0.659
132 396.00 4508.65 153 293 1.340 10000.000 0.000 0.659
133 399.00 4508.65 141 228 1.340 10000.000 0.000 0.659
134 402.00 4508.65 156 292 1.340 10000.000 0.000 0.659
