# BinNR microsec tot-time (s)  O-Beam AUX Ampl(V) f(Hz) phase(deg) chi(pos)
0 0.00 1200.00 155 351 1.340 10000.000 0.000 -0.165
1 3.00 1200.00 276 615 1.340 10000.000 0.000 -0.165
2 6.00 1200.00 258 622 1.340 10000.000 0.000 -0.165
3 9.00 1200.00 276 569 1.340 10000.000 0.000 -0.165
4 12.00 1200.00 276 545 1.340 10000.000 0.000 -0.165
5 15.00 1200.00 218 418 1.340 10000.000 0.000 -0.165
6 18.00 1200.00 240 438 1.340 10000.000 0.000 -0.165
7 21.00 1200.00 225 359 1.340 10000.000 0.000 -0.165
8 24.00 1200.00 230 346 1.340 10000.000 0.000 -0.165
9 27.00 1200.00 196 296 1.340 10000.000 0.000 -0.165
10 30.00 1200.00 203 327 1.340 10000.000 0.000 -0.165
11 33.00 1200.00 186 260 1.340 10000.000 0.000 -0.165
12 36.00 1200.00 153 316 1.340 10000.000 0.000 -0.165
13 39.00 1200.00 165 292 1.340 10000.000 0.000 -0.165
14 42.00 1200.00 162 318 1.340 10000.000 0.000 -0.165
15 45.00 1200.00 175 289 1.340 10000.000 0.000 -0.165
16 48.00 1200.00 190 310 1.340 10000.000 0.000 -0.165
17 51.00 1200.00 183 318 1.340 10000.000 0.000 -0.165
18 54.00 1200.00 185 327 1.340 10000.000 0.000 -0.165
19 57.00 1200.00 202 347 1.340 10000.000 0.000 -0.165
20 60.00 1200.00 198 353 1.340 10000.000 0.000 -0.165
21 63.00 1200.00 238 386 1.340 10000.000 0.000 -0.165
22 66.00 1200.00 260 378 1.340 10000.000 0.000 -0.165
23 69.00 1200.00 251 416 1.340 10000.000 0.000 -0.165
24 72.00 1200.00 275 525 1.340 10000.000 0.000 -0.165
25 75.00 1200.00 247 562 1.340 10000.000 0.000 -0.165
26 78.00 1200.00 299 560 1.340 10000.000 0.000 -0.165
27 81.00 1200.00 259 584 1.340 10000.000 0.000 -0.165
28 84.00 1200.00 289 625 1.340 10000.000 0.000 -0.165
29 87.00 1200.00 276 614 1.340 10000.000 0.000 -0.165
30 90.00 1200.00 315 650 1.340 10000.000 0.000 -0.165
31 93.00 1200.00 291 722 1.340 10000.000 0.000 -0.165
32 96.00 1200.00 331 685 1.340 10000.000 0.000 -0.165
33 99.00 1200.00 284 703 1.340 10000.000 0.000 -0.165
34 102.00 1200.00 288 727 1.340 10000.000 0.000 -0.165
35 105.00 1200.00 262 656 1.340 10000.000 0.000 -0.165
36 108.00 1200.00 276 651 1.340 10000.000 0.000 -0.165
37 111.00 1200.00 281 587 1.340 10000.000 0.000 -0.165
38 114.00 1200.00 227 536 1.340 10000.000 0.000 -0.165
39 117.00 1200.00 238 528 1.340 10000.000 0.000 -0.165
40 120.00 1200.00 264 472 1.340 10000.000 0.000 -0.165
41 123.00 1200.00 201 429 1.340 10000.000 0.000 -0.165
42 126.00 1200.00 216 370 1.340 10000.000 0.000 -0.165
43 129.00 1200.00 211 344 1.340 10000.000 0.000 -0.165
44 132.00 1200.00 159 307 1.340 10000.000 0.000 -0.165
45 135.00 1200.00 189 300 1.340 10000.000 0.000 -0.165
46 138.00 1200.00 176 258 1.340 10000.000 0.000 -0.165
47 141.00 1200.00 169 261 1.340 10000.000 0.000 -0.165
48 144.00 1200.00 175 247 1.340 10000.000 0.000 -0.165
49 147.00 1200.00 188 276 1.340 10000.000 0.000 -0.165
50 150.00 1200.00 191 276 1.340 10000.000 0.000 -0.165
51 153.00 1200.00 216 263 1.340 10000.000 0.000 -0.165
52 156.00 1200.00 202 313 1.340 10000.000 0.000 -0.165
53 159.00 1200.00 192 313 1.340 10000.000 0.000 -0.165
54 162.00 1200.00 210 348 1.340 10000.000 0.000 -0.165
55 165.00 1200.00 231 397 1.340 10000.000 0.000 -0.165
56 168.00 1200.00 249 441 1.340 10000.000 0.000 -0.165
57 171.00 1200.00 260 463 1.340 10000.000 0.000 -0.165
58 174.00 1200.00 287 523 1.340 10000.000 0.000 -0.165
59 177.00 1200.00 257 572 1.340 10000.000 0.000 -0.165
60 180.00 1200.00 288 585 1.340 10000.000 0.000 -0.165
61 183.00 1200.00 261 592 1.340 10000.000 0.000 -0.165
62 186.00 1200.00 274 618 1.340 10000.000 0.000 -0.165
63 189.00 1200.00 273 647 1.340 10000.000 0.000 -0.165
64 192.00 1200.00 329 744 1.340 10000.000 0.000 -0.165
65 195.00 1200.00 286 650 1.340 10000.000 0.000 -0.165
66 198.00 1200.00 288 702 1.340 10000.000 0.000 -0.165
67 201.00 1200.00 248 684 1.340 10000.000 0.000 -0.165
68 204.00 1200.00 305 690 1.340 10000.000 0.000 -0.165
69 207.00 1200.00 280 622 1.340 10000.000 0.000 -0.165
70 210.00 1200.00 275 600 1.340 10000.000 0.000 -0.165
71 213.00 1200.00 254 551 1.340 10000.000 0.000 -0.165
72 216.00 1200.00 225 544 1.340 10000.000 0.000 -0.165
73 219.00 1200.00 207 448 1.340 10000.000 0.000 -0.165
74 222.00 1200.00 196 450 1.340 10000.000 0.000 -0.165
75 225.00 1200.00 189 398 1.340 10000.000 0.000 -0.165
76 228.00 1200.00 202 367 1.340 10000.000 0.000 -0.165
77 231.00 1200.00 180 336 1.340 10000.000 0.000 -0.165
78 234.00 1200.00 173 279 1.340 10000.000 0.000 -0.165
79 237.00 1200.00 199 290 1.340 10000.000 0.000 -0.165
80 240.00 1200.00 177 280 1.340 10000.000 0.000 -0.165
81 243.00 1200.00 161 273 1.340 10000.000 0.000 -0.165
82 246.00 1200.00 209 263 1.340 10000.000 0.000 -0.165
83 249.00 1200.00 184 291 1.340 10000.000 0.000 -0.165
84 252.00 1200.00 182 277 1.340 10000.000 0.000 -0.165
85 255.00 1200.00 200 291 1.340 10000.000 0.000 -0.165
86 258.00 1200.00 195 302 1.340 10000.000 0.000 -0.165
87 261.00 1200.00 224 355 1.340 10000.000 0.000 -0.165
88 264.00 1200.00 249 387 1.340 10000.000 0.000 -0.165
89 267.00 1200.00 254 451 1.340 10000.000 0.000 -0.165
90 270.00 1200.00 239 418 1.340 10000.000 0.000 -0.165
91 273.00 1200.00 244 575 1.340 10000.000 0.000 -0.165
92 276.00 1200.00 289 559 1.340 10000.000 0.000 -0.165
93 279.00 1200.00 277 603 1.340 10000.000 0.000 -0.165
94 282.00 1200.00 282 604 1.340 10000.000 0.000 -0.165
95 285.00 1200.00 298 647 1.340 10000.000 0.000 -0.165
96 288.00 1200.00 296 656 1.340 10000.000 0.000 -0.165
97 291.00 1200.00 294 659 1.340 10000.000 0.000 -0.165
98 294.00 1200.00 303 599 1.340 10000.000 0.000 -0.165
99 297.00 1200.00 306 664 1.340 10000.000 0.000 -0.165
100 300.00 1200.00 278 682 1.340 10000.000 0.000 -0.165
101 303.00 1200.00 293 643 1.340 10000.000 0.000 -0.165
102 306.00 1200.00 302 680 1.340 10000.000 0.000 -0.165
103 309.00 1200.00 243 609 1.340 10000.000 0.000 -0.165
104 312.00 1200.00 282 552 1.340 10000.000 0.000 -0.165
105 315.00 1200.00 228 532 1.340 10000.000 0.000 -0.165
106 318.00 1200.00 251 490 1.340 10000.000 0.000 -0.165
107 321.00 1200.00 226 431 1.340 10000.000 0.000 -0.165
108 324.00 1200.00 221 406 1.340 10000.000 0.000 -0.165
109 327.00 1200.00 200 363 1.340 10000.000 0.000 -0.165
110 330.00 1200.00 214 340 1.340 10000.000 0.000 -0.165
111 333.00 1200.00 204 282 1.340 10000.000 0.000 -0.165
112 336.00 1200.00 185 293 1.340 10000.000 0.000 -0.165
113 339.00 1200.00 190 259 1.340 10000.000 0.000 -0.165
114 342.00 1200.00 178 255 1.340 10000.000 0.000 -0.165
115 345.00 1200.00 184 290 1.340 10000.000 0.000 -0.165
116 348.00 1200.00 211 227 1.340 10000.000 0.000 -0.165
117 351.00 1200.00 175 242 1.340 10000.000 0.000 -0.165
118 354.00 1200.00 206 255 1.340 10000.000 0.000 -0.165
119 357.00 1200.00 184 304 1.340 10000.000 0.000 -0.165
120 360.00 1200.00 198 368 1.340 10000.000 0.000 -0.165
121 363.00 1200.00 206 376 1.340 10000.000 0.000 -0.165
122 366.00 1200.00 214 434 1.340 10000.000 0.000 -0.165
123 369.00 1200.00 210 438 1.340 10000.000 0.000 -0.165
124 372.00 1200.00 235 520 1.340 10000.000 0.000 -0.165
125 375.00 1200.00 244 538 1.340 10000.000 0.000 -0.165
126 378.00 1200.00 286 584 1.340 10000.000 0.000 -0.165
127 381.00 1200.00 263 646 1.340 10000.000 0.000 -0.165
128 384.00 1200.00 330 600 1.340 10000.000 0.000 -0.165
129 387.00 1200.00 296 688 1.340 10000.000 0.000 -0.165
130 390.00 1200.00 311 700 1.340 10000.000 0.000 -0.165
131 393.00 1200.00 307 731 1.340 10000.000 0.000 -0.165
132 396.00 1200.00 303 758 1.340 10000.000 0.000 -0.165
133 399.00 1200.00 319 654 1.340 10000.000 0.000 -0.165
134 402.00 1200.00 305 661 1.340 10000.000 0.000 -0.165
