# BinNR microsec tot-time (s)  O-Beam AUX Ampl(V) f(Hz) phase(deg) chi(pos)
0 0.00 1500.00 130 262 2.050 10000.000 0.000 0.659
1 3.00 1500.00 236 518 2.050 10000.000 0.000 0.659
2 6.00 1500.00 251 548 2.050 10000.000 0.000 0.659
3 9.00 1500.00 229 544 2.050 10000.000 0.000 0.659
4 12.00 1500.00 257 536 2.050 10000.000 0.000 0.659
5 15.00 1500.00 245 504 2.050 10000.000 0.000 0.659
6 18.00 1500.00 295 543 2.050 10000.000 0.000 0.659
7 21.00 1500.00 264 528 2.050 10000.000 0.000 0.659
8 24.00 1500.00 249 520 2.050 10000.000 0.000 0.659
9 27.00 1500.00 231 548 2.050 10000.000 0.000 0.659
10 30.00 1500.00 233 524 2.050 10000.000 0.000 0.659
11 33.00 1500.00 242 484 2.050 10000.000 0.000 0.659
12 36.00 1500.00 278 560 2.050 10000.000 0.000 0.659
13 39.00 1500.00 264 531 2.050 10000.000 0.000 0.659
14 42.00 1500.00 256 477 2.050 10000.000 0.000 0.659
15 45.00 1500.00 263 516 2.050 10000.000 0.000 0.659
16 48.00 1500.00 285 516 2.050 10000.000 0.000 0.659
17 51.00 1500.00 236 547 2.050 10000.000 0.000 0.659
18 54.00 1500.00 273 553 2.050 10000.000 0.000 0.659
19 57.00 1500.00 251 543 2.050 10000.000 0.000 0.659
20 60.00 1500.00 231 549 2.050 10000.000 0.000 0.659
21 63.00 1500.00 231 510 2.050 10000.000 0.000 0.659
22 66.00 1500.00 264 534 2.050 10000.000 0.000 0.659
23 69.00 1500.00 228 525 2.050 10000.000 0.000 0.659
24 72.00 1500.00 246 503 2.050 10000.000 0.000 0.659
25 75.00 1500.00 251 518 2.050 10000.000 0.000 0.659
26 78.00 1500.00 265 542 2.050 10000.000 0.000 0.659
27 81.00 1500.00 240 530 2.050 10000.000 0.000 0.659
28 84.00 1500.00 293 487 2.050 10000.000 0.000 0.659
29 87.00 1500.00 244 517 2.050 10000.000 0.000 0.659
30 90.00 1500.00 227 545 2.050 10000.000 0.000 0.659
31 93.00 1500.00 235 534 2.050 10000.000 0.000 0.659
32 96.00 1500.00 258 524 2.050 10000.000 0.000 0.659
33 99.00 1500.00 260 522 2.050 10000.000 0.000 0.659
34 102.00 1500.00 268 559 2.050 10000.000 0.000 0.659
35 105.00 1500.00 241 529 2.050 10000.000 0.000 0.659
36 108.00 1500.00 237 508 2.050 10000.000 0.000 0.659
37 111.00 1500.00 240 530 2.050 10000.000 0.000 0.659
38 114.00 1500.00 271 524 2.050 10000.000 0.000 0.659
39 117.00 1500.00 262 505 2.050 10000.000 0.000 0.659
40 120.00 1500.00 275 542 2.050 10000.000 0.000 0.659
41 123.00 1500.00 269 509 2.050 10000.000 0.000 0.659
42 126.00 1500.00 235 504 2.050 10000.000 0.000 0.659
43 129.00 1500.00 230 562 2.050 10000.000 0.000 0.659
44 132.00 1500.00 270 514 2.050 10000.000 0.000 0.659
45 135.00 1500.00 228 500 2.050 10000.000 0.000 0.659
46 138.00 1500.00 271 475 2.050 10000.000 0.000 0.659
47 141.00 1500.00 268 535 2.050 10000.000 0.000 0.659
48 144.00 1500.00 228 537 2.050 10000.000 0.000 0.659
49 147.00 1500.00 245 533 2.050 10000.000 0.000 0.659
50 150.00 1500.00 247 538 2.050 10000.000 0.000 0.659
51 153.00 1500.00 242 505 2.050 10000.000 0.000 0.659
52 156.00 1500.00 264 556 2.050 10000.000 0.000 0.659
53 159.00 1500.00 244 509 2.050 10000.000 0.000 0.659
54 162.00 1500.00 256 555 2.050 10000.000 0.000 0.659
55 165.00 1500.00 284 537 2.050 10000.000 0.000 0.659
56 168.00 1500.00 240 517 2.050 10000.000 0.000 0.659
57 171.00 1500.00 266 493 2.050 10000.000 0.000 0.659
58 174.00 1500.00 271 481 2.050 10000.000 0.000 0.659
59 177.00 1500.00 247 533 2.050 10000.000 0.000 0.659
60 180.00 1500.00 259 507 2.050 10000.000 0.000 0.659
61 183.00 1500.00 239 506 2.050 10000.000 0.000 0.659
62 186.00 1500.00 278 530 2.050 10000.000 0.000 0.659
63 189.00 1500.00 251 501 2.050 10000.000 0.000 0.659
64 192.00 1500.00 241 522 2.050 10000.000 0.000 0.659
65 195.00 1500.00 247 487 2.050 10000.000 0.000 0.659
66 198.00 1500.00 248 511 2.050 10000.000 0.000 0.659
67 201.00 1500.00 278 524 2.050 10000.000 0.000 0.659
68 204.00 1500.00 256 518 2.050 10000.000 0.000 0.659
69 207.00 1500.00 249 533 2.050 10000.000 0.000 0.659
70 210.00 1500.00 275 555 2.050 10000.000 0.000 0.659
71 213.00 1500.00 221 469 2.050 10000.000 0.000 0.659
72 216.00 1500.00 259 528 2.050 10000.000 0.000 0.659
73 219.00 1500.00 257 549 2.050 10000.000 0.000 0.659
74 222.00 1500.00 280 527 2.050 10000.000 0.000 0.659
75 225.00 1500.00 246 541 2.050 10000.000 0.000 0.659
76 228.00 1500.00 236 508 2.050 10000.000 0.000 0.659
77 231.00 1500.00 248 509 2.050 10000.000 0.000 0.659
78 234.00 1500.00 234 534 2.050 10000.000 0.000 0.659
79 237.00 1500.00 241 489 2.050 10000.000 0.000 0.659
80 240.00 1500.00 268 525 2.050 10000.000 0.000 0.659
81 243.00 1500.00 286 514 2.050 10000.000 0.000 0.659
82 246.00 1500.00 227 522 2.050 10000.000 0.000 0.659
83 249.00 1500.00 239 523 2.050 10000.000 0.000 0.659
84 252.00 1500.00 242 496 2.050 10000.000 0.000 0.659
85 255.00 1500.00 253 495 2.050 10000.000 0.000 0.659
86 258.00 1500.00 220 552 2.050 10000.000 0.000 0.659
87 261.00 1500.00 241 503 2.050 10000.000 0.000 0.659
88 264.00 1500.00 269 480 2.050 10000.000 0.000 0.659
89 267.00 1500.00 240 487 2.050 10000.000 0.000 0.659
90 270.00 1500.00 271 512 2.050 10000.000 0.000 0.659
91 273.00 1500.00 243 488 2.050 10000.000 0.000 0.659
92 276.00 1500.00 249 545 2.050 10000.000 0.000 0.659
93 279.00 1500.00 241 545 2.050 10000.000 0.000 0.659
94 282.00 1500.00 271 521 2.050 10000.000 0.000 0.659
95 285.00 1500.00 228 532 2.050 10000.000 0.000 0.659
96 288.00 1500.00 249 538 2.050 10000.000 0.000 0.659
97 291.00 1500.00 285 504 2.050 10000.000 0.000 0.659
98 294.00 1500.00 271 548 2.050 10000.000 0.000 0.659
99 297.00 1500.00 239 529 2.050 10000.000 0.000 0.659
100 300.00 1500.00 255 492 2.050 10000.000 0.000 0.659
101 303.00 1500.00 227 517 2.050 10000.000 0.000 0.659
102 306.00 1500.00 257 495 2.050 10000.000 0.000 0.659
103 309.00 1500.00 228 550 2.050 10000.000 0.000 0.659
104 312.00 1500.00 228 530 2.050 10000.000 0.000 0.659
105 315.00 1500.00 272 508 2.050 10000.000 0.000 0.659
106 318.00 1500.00 249 541 2.050 10000.000 0.000 0.659
107 321.00 1500.00 251 536 2.050 10000.000 0.000 0.659
108 324.00 1500.00 273 527 2.050 10000.000 0.000 0.659
109 327.00 1500.00 272 499 2.050 10000.000 0.000 0.659
110 330.00 1500.00 258 520 2.050 10000.000 0.000 0.659
111 333.00 1500.00 232 491 2.050 10000.000 0.000 0.659
112 336.00 1500.00 284 531 2.050 10000.000 0.000 0.659
113 339.00 1500.00 264 492 2.050 10000.000 0.000 0.659
114 342.00 1500.00 256 523 2.050 10000.000 0.000 0.659
115 345.00 1500.00 234 508 2.050 10000.000 0.000 0.659
116 348.00 1500.00 253 535 2.050 10000.000 0.000 0.659
117 351.00 1500.00 253 521 2.050 10000.000 0.000 0.659
118 354.00 1500.00 272 489 2.050 10000.000 0.000 0.659
119 357.00 1500.00 225 513 2.050 10000.000 0.000 0.659
120 360.00 1500.00 240 511 2.050 10000.000 0.000 0.659
121 363.00 1500.00 240 564 2.050 10000.000 0.000 0.659
122 366.00 1500.00 246 524 2.050 10000.000 0.000 0.659
123 369.00 1500.00 241 468 2.050 10000.000 0.000 0.659
124 372.00 1500.00 270 519 2.050 10000.000 0.000 0.659
125 375.00 1500.00 256 470 2.050 10000.000 0.000 0.659
126 378.00 1500.00 269 538 2.050 10000.000 0.000 0.659
127 381.00 1500.00 251 515 2.050 10000.000 0.000 0.659
128 384.00 1500.00 254 501 2.050 10000.000 0.000 0.659
129 387.00 1500.00 280 518 2.050 10000.000 0.000 0.659
130 390.00 1500.00 258 510 2.050 10000.000 0.000 0.659
131 393.00 1500.00 217 554 2.050 10000.000 0.000 0.659
132 396.00 1500.00 247 541 2.050 10000.000 0.000 0.659
133 399.00 1500.00 257 509 2.050 10000.000 0.000 0.659
134 402.00 1500.00 252 521 2.050 10000.000 0.000 0.659
