# BinNR microsec tot-time (s)  O-Beam AUX Ampl(V) f(Hz) phase(deg) chi(pos)
0 0.00 1500.04 91 124 2.050 10000.000 0.000 0.989
1 3.00 1500.04 162 215 2.050 10000.000 0.000 0.989
2 6.00 1500.04 187 265 2.050 10000.000 0.000 0.989
3 9.00 1500.04 176 232 2.050 10000.000 0.000 0.989
4 12.00 1500.04 159 229 2.050 10000.000 0.000 0.989
5 15.00 1500.04 174 249 2.050 10000.000 0.000 0.989
6 18.00 1500.04 204 262 2.050 10000.000 0.000 0.989
7 21.00 1500.04 187 231 2.050 10000.000 0.000 0.989
8 24.00 1500.04 177 271 2.050 10000.000 0.000 0.989
9 27.00 1500.04 154 263 2.050 10000.000 0.000 0.989
10 30.00 1500.04 161 244 2.050 10000.000 0.000 0.989
11 33.00 1500.04 170 240 2.050 10000.000 0.000 0.989
12 36.00 1500.04 177 236 2.050 10000.000 0.000 0.989
13 39.00 1500.04 161 234 2.050 10000.000 0.000 0.989
14 42.00 1500.04 205 256 2.050 10000.000 0.000 0.989
15 45.00 1500.04 172 237 2.050 10000.000 0.000 0.989
16 48.00 1500.04 197 294 2.050 10000.000 0.000 0.989
17 51.00 1500.04 171 251 2.050 10000.000 0.000 0.989
18 54.00 1500.04 175 255 2.050 10000.000 0.000 0.989
19 57.00 1500.04 157 253 2.050 10000.000 0.000 0.989
20 60.00 1500.04 165 240 2.050 10000.000 0.000 0.989
21 63.00 1500.04 167 252 2.050 10000.000 0.000 0.989
22 66.00 1500.04 187 235 2.050 10000.000 0.000 0.989
23 69.00 1500.04 165 241 2.050 10000.000 0.000 0.989
24 72.00 1500.04 192 244 2.050 10000.000 0.000 0.989
25 75.00 1500.04 185 246 2.050 10000.000 0.000 0.989
26 78.00 1500.04 174 225 2.050 10000.000 0.000 0.989
27 81.00 1500.04 167 276 2.050 10000.000 0.000 0.989
28 84.00 1500.04 170 268 2.050 10000.000 0.000 0.989
29 87.00 1500.04 167 213 2.050 10000.000 0.000 0.989
30 90.00 1500.04 199 241 2.050 10000.000 0.000 0.989
31 93.00 1500.04 174 205 2.050 10000.000 0.000 0.989
32 96.00 1500.04 166 255 2.050 10000.000 0.000 0.989
33 99.00 1500.04 189 229 2.050 10000.000 0.000 0.989
34 102.00 1500.04 198 226 2.050 10000.000 0.000 0.989
35 105.00 1500.04 202 204 2.050 10000.000 0.000 0.989
36 108.00 1500.04 167 251 2.050 10000.000 0.000 0.989
37 111.00 1500.04 162 245 2.050 10000.000 0.000 0.989
38 114.00 1500.04 186 203 2.050 10000.000 0.000 0.989
39 117.00 1500.04 184 226 2.050 10000.000 0.000 0.989
40 120.00 1500.04 191 218 2.050 10000.000 0.000 0.989
41 123.00 1500.04 187 223 2.050 10000.000 0.000 0.989
42 126.00 1500.04 185 246 2.050 10000.000 0.000 0.989
43 129.00 1500.04 149 243 2.050 10000.000 0.000 0.989
44 132.00 1500.04 187 248 2.050 10000.000 0.000 0.989
45 135.00 1500.04 169 244 2.050 10000.000 0.000 0.989
46 138.00 1500.04 191 262 2.050 10000.000 0.000 0.989
47 141.00 1500.04 205 234 2.050 10000.000 0.000 0.989
48 144.00 1500.04 153 236 2.050 10000.000 0.000 0.989
49 147.00 1500.04 165 281 2.050 10000.000 0.000 0.989
50 150.00 1500.04 151 276 2.050 10000.000 0.000 0.989
51 153.00 1500.04 172 247 2.050 10000.000 0.000 0.989
52 156.00 1500.04 183 261 2.050 10000.000 0.000 0.989
53 159.00 1500.04 169 248 2.050 10000.000 0.000 0.989
54 162.00 1500.04 187 247 2.050 10000.000 0.000 0.989
55 165.00 1500.04 177 252 2.050 10000.000 0.000 0.989
56 168.00 1500.04 167 255 2.050 10000.000 0.000 0.989
57 171.00 1500.04 171 250 2.050 10000.000 0.000 0.989
58 174.00 1500.04 186 246 2.050 10000.000 0.000 0.989
59 177.00 1500.04 170 228 2.050 10000.000 0.000 0.989
60 180.00 1500.04 180 267 2.050 10000.000 0.000 0.989
61 183.00 1500.04 154 272 2.050 10000.000 0.000 0.989
62 186.00 1500.04 168 239 2.050 10000.000 0.000 0.989
63 189.00 1500.04 171 270 2.050 10000.000 0.000 0.989
64 192.00 1500.04 153 264 2.050 10000.000 0.000 0.989
65 195.00 1500.04 189 227 2.050 10000.000 0.000 0.989
66 198.00 1500.04 178 270 2.050 10000.000 0.000 0.989
67 201.00 1500.04 176 237 2.050 10000.000 0.000 0.989
68 204.00 1500.04 173 212 2.050 10000.000 0.000 0.989
69 207.00 1500.04 140 236 2.050 10000.000 0.000 0.989
70 210.00 1500.04 170 224 2.050 10000.000 0.000 0.989
71 213.00 1500.04 178 264 2.050 10000.000 0.000 0.989
72 216.00 1500.04 190 240 2.050 10000.000 0.000 0.989
73 219.00 1500.04 163 246 2.050 10000.000 0.000 0.989
74 222.00 1500.04 186 252 2.050 10000.000 0.000 0.989
75 225.00 1500.04 167 237 2.050 10000.000 0.000 0.989
76 228.00 1500.04 184 245 2.050 10000.000 0.000 0.989
77 231.00 1500.04 188 242 2.050 10000.000 0.000 0.989
78 234.00 1500.04 186 238 2.050 10000.000 0.000 0.989
79 237.00 1500.04 179 235 2.050 10000.000 0.000 0.989
80 240.00 1500.04 166 205 2.050 10000.000 0.000 0.989
81 243.00 1500.04 175 236 2.050 10000.000 0.000 0.989
82 246.00 1500.04 179 257 2.050 10000.000 0.000 0.989
83 249.00 1500.04 178 253 2.050 10000.000 0.000 0.989
84 252.00 1500.04 186 247 2.050 10000.000 0.000 0.989
85 255.00 1500.04 154 234 2.050 10000.000 0.000 0.989
86 258.00 1500.04 179 240 2.050 10000.000 0.000 0.989
87 261.00 1500.04 154 260 2.050 10000.000 0.000 0.989
88 264.00 1500.04 205 211 2.050 10000.000 0.000 0.989
89 267.00 1500.04 161 255 2.050 10000.000 0.000 0.989
90 270.00 1500.04 181 240 2.050 10000.000 0.000 0.989
91 273.00 1500.04 158 243 2.050 10000.000 0.000 0.989
92 276.00 1500.04 185 232 2.050 10000.000 0.000 0.989
93 279.00 1500.04 171 232 2.050 10000.000 0.000 0.989
94 282.00 1500.04 175 244 2.050 10000.000 0.000 0.989
95 285.00 1500.04 157 229 2.050 10000.000 0.000 0.989
96 288.00 1500.04 157 271 2.050 10000.000 0.000 0.989
97 291.00 1500.04 186 229 2.050 10000.000 0.000 0.989
98 294.00 1500.04 195 248 2.050 10000.000 0.000 0.989
99 297.00 1500.04 191 246 2.050 10000.000 0.000 0.989
100 300.00 1500.04 185 256 2.050 10000.000 0.000 0.989
101 303.00 1500.04 163 214 2.050 10000.000 0.000 0.989
102 306.00 1500.04 182 257 2.050 10000.000 0.000 0.989
103 309.00 1500.04 184 238 2.050 10000.000 0.000 0.989
104 312.00 1500.04 165 248 2.050 10000.000 0.000 0.989
105 315.00 1500.04 176 226 2.050 10000.000 0.000 0.989
106 318.00 1500.04 189 253 2.050 10000.000 0.000 0.989
107 321.00 1500.04 180 220 2.050 10000.000 0.000 0.989
108 324.00 1500.04 178 262 2.050 10000.000 0.000 0.989
109 327.00 1500.04 162 212 2.050 10000.000 0.000 0.989
110 330.00 1500.04 195 245 2.050 10000.000 0.000 0.989
111 333.00 1500.04 179 243 2.050 10000.000 0.000 0.989
112 336.00 1500.04 171 233 2.050 10000.000 0.000 0.989
113 339.00 1500.04 193 226 2.050 10000.000 0.000 0.989
114 342.00 1500.04 205 256 2.050 10000.000 0.000 0.989
115 345.00 1500.04 180 233 2.050 10000.000 0.000 0.989
116 348.00 1500.04 185 264 2.050 10000.000 0.000 0.989
117 351.00 1500.04 183 267 2.050 10000.000 0.000 0.989
118 354.00 1500.04 167 240 2.050 10000.000 0.000 0.989
119 357.00 1500.04 162 245 2.050 10000.000 0.000 0.989
120 360.00 1500.04 167 227 2.050 10000.000 0.000 0.989
121 363.00 1500.04 172 237 2.050 10000.000 0.000 0.989
122 366.00 1500.04 169 269 2.050 10000.000 0.000 0.989
123 369.00 1500.04 132 248 2.050 10000.000 0.000 0.989
124 372.00 1500.04 178 241 2.050 10000.000 0.000 0.989
125 375.00 1500.04 193 264 2.050 10000.000 0.000 0.989
126 378.00 1500.04 168 255 2.050 10000.000 0.000 0.989
127 381.00 1500.04 171 221 2.050 10000.000 0.000 0.989
128 384.00 1500.04 155 241 2.050 10000.000 0.000 0.989
129 387.00 1500.04 194 270 2.050 10000.000 0.000 0.989
130 390.00 1500.04 186 250 2.050 10000.000 0.000 0.989
131 393.00 1500.04 166 206 2.050 10000.000 0.000 0.989
132 396.00 1500.04 195 238 2.050 10000.000 0.000 0.989
133 399.00 1500.04 162 234 2.050 10000.000 0.000 0.989
134 402.00 1500.04 136 242 2.050 10000.000 0.000 0.989
