# BinNR microsec tot-time (s)  O-Beam AUX Ampl(V) f(Hz) phase(deg) chi(pos)
0 0.00 1500.00 98 253 2.050 10000.000 0.000 1.494
1 3.00 1500.00 224 526 2.050 10000.000 0.000 1.494
2 6.00 1500.00 213 557 2.050 10000.000 0.000 1.494
3 9.00 1500.00 216 520 2.050 10000.000 0.000 1.494
4 12.00 1500.00 199 493 2.050 10000.000 0.000 1.494
5 15.00 1500.00 205 503 2.050 10000.000 0.000 1.494
6 18.00 1500.00 213 563 2.050 10000.000 0.000 1.494
7 21.00 1500.00 190 516 2.050 10000.000 0.000 1.494
8 24.00 1500.00 236 584 2.050 10000.000 0.000 1.494
9 27.00 1500.00 188 546 2.050 10000.000 0.000 1.494
10 30.00 1500.00 235 611 2.050 10000.000 0.000 1.494
11 33.00 1500.00 219 519 2.050 10000.000 0.000 1.494
12 36.00 1500.00 200 512 2.050 10000.000 0.000 1.494
13 39.00 1500.00 199 572 2.050 10000.000 0.000 1.494
14 42.00 1500.00 242 483 2.050 10000.000 0.000 1.494
15 45.00 1500.00 239 550 2.050 10000.000 0.000 1.494
16 48.00 1500.00 210 543 2.050 10000.000 0.000 1.494
17 51.00 1500.00 219 550 2.050 10000.000 0.000 1.494
18 54.00 1500.00 212 576 2.050 10000.000 0.000 1.494
19 57.00 1500.00 238 557 2.050 10000.000 0.000 1.494
20 60.00 1500.00 214 571 2.050 10000.000 0.000 1.494
21 63.00 1500.00 231 558 2.050 10000.000 0.000 1.494
22 66.00 1500.00 188 485 2.050 10000.000 0.000 1.494
23 69.00 1500.00 239 534 2.050 10000.000 0.000 1.494
24 72.00 1500.00 215 563 2.050 10000.000 0.000 1.494
25 75.00 1500.00 204 506 2.050 10000.000 0.000 1.494
26 78.00 1500.00 228 535 2.050 10000.000 0.000 1.494
27 81.00 1500.00 198 553 2.050 10000.000 0.000 1.494
28 84.00 1500.00 214 534 2.050 10000.000 0.000 1.494
29 87.00 1500.00 219 499 2.050 10000.000 0.000 1.494
30 90.00 1500.00 228 541 2.050 10000.000 0.000 1.494
31 93.00 1500.00 239 531 2.050 10000.000 0.000 1.494
32 96.00 1500.00 218 565 2.050 10000.000 0.000 1.494
33 99.00 1500.00 225 499 2.050 10000.000 0.000 1.494
34 102.00 1500.00 207 563 2.050 10000.000 0.000 1.494
35 105.00 1500.00 206 476 2.050 10000.000 0.000 1.494
36 108.00 1500.00 202 561 2.050 10000.000 0.000 1.494
37 111.00 1500.00 213 545 2.050 10000.000 0.000 1.494
38 114.00 1500.00 213 521 2.050 10000.000 0.000 1.494
39 117.00 1500.00 214 548 2.050 10000.000 0.000 1.494
40 120.00 1500.00 226 573 2.050 10000.000 0.000 1.494
41 123.00 1500.00 236 543 2.050 10000.000 0.000 1.494
42 126.00 1500.00 184 573 2.050 10000.000 0.000 1.494
43 129.00 1500.00 178 533 2.050 10000.000 0.000 1.494
44 132.00 1500.00 238 560 2.050 10000.000 0.000 1.494
45 135.00 1500.00 203 487 2.050 10000.000 0.000 1.494
46 138.00 1500.00 243 561 2.050 10000.000 0.000 1.494
47 141.00 1500.00 230 503 2.050 10000.000 0.000 1.494
48 144.00 1500.00 202 533 2.050 10000.000 0.000 1.494
49 147.00 1500.00 211 523 2.050 10000.000 0.000 1.494
50 150.00 1500.00 228 516 2.050 10000.000 0.000 1.494
51 153.00 1500.00 208 501 2.050 10000.000 0.000 1.494
52 156.00 1500.00 213 547 2.050 10000.000 0.000 1.494
53 159.00 1500.00 197 504 2.050 10000.000 0.000 1.494
54 162.00 1500.00 249 531 2.050 10000.000 0.000 1.494
55 165.00 1500.00 203 539 2.050 10000.000 0.000 1.494
56 168.00 1500.00 194 500 2.050 10000.000 0.000 1.494
57 171.00 1500.00 167 514 2.050 10000.000 0.000 1.494
58 174.00 1500.00 214 542 2.050 10000.000 0.000 1.494
59 177.00 1500.00 213 520 2.050 10000.000 0.000 1.494
60 180.00 1500.00 225 506 2.050 10000.000 0.000 1.494
61 183.00 1500.00 185 553 2.050 10000.000 0.000 1.494
62 186.00 1500.00 229 544 2.050 10000.000 0.000 1.494
63 189.00 1500.00 224 545 2.050 10000.000 0.000 1.494
64 192.00 1500.00 206 501 2.050 10000.000 0.000 1.494
65 195.00 1500.00 209 537 2.050 10000.000 0.000 1.494
66 198.00 1500.00 223 562 2.050 10000.000 0.000 1.494
67 201.00 1500.00 236 547 2.050 10000.000 0.000 1.494
68 204.00 1500.00 226 537 2.050 10000.000 0.000 1.494
69 207.00 1500.00 221 541 2.050 10000.000 0.000 1.494
70 210.00 1500.00 210 500 2.050 10000.000 0.000 1.494
71 213.00 1500.00 212 527 2.050 10000.000 0.000 1.494
72 216.00 1500.00 201 511 2.050 10000.000 0.000 1.494
73 219.00 1500.00 232 507 2.050 10000.000 0.000 1.494
74 222.00 1500.00 230 562 2.050 10000.000 0.000 1.494
75 225.00 1500.00 197 541 2.050 10000.000 0.000 1.494
76 228.00 1500.00 200 552 2.050 10000.000 0.000 1.494
77 231.00 1500.00 226 476 2.050 10000.000 0.000 1.494
78 234.00 1500.00 210 499 2.050 10000.000 0.000 1.494
79 237.00 1500.00 199 533 2.050 10000.000 0.000 1.494
80 240.00 1500.00 209 562 2.050 10000.000 0.000 1.494
81 243.00 1500.00 220 524 2.050 10000.000 0.000 1.494
82 246.00 1500.00 185 584 2.050 10000.000 0.000 1.494
83 249.00 1500.00 192 527 2.050 10000.000 0.000 1.494
84 252.00 1500.00 207 550 2.050 10000.000 0.000 1.494
85 255.00 1500.00 211 528 2.050 10000.000 0.000 1.494
86 258.00 1500.00 201 540 2.050 10000.000 0.000 1.494
87 261.00 1500.00 192 516 2.050 10000.000 0.000 1.494
88 264.00 1500.00 201 534 2.050 10000.000 0.000 1.494
89 267.00 1500.00 214 547 2.050 10000.000 0.000 1.494
90 270.00 1500.00 226 548 2.050 10000.000 0.000 1.494
91 273.00 1500.00 227 543 2.050 10000.000 0.000 1.494
92 276.00 1500.00 191 535 2.050 10000.000 0.000 1.494
93 279.00 1500.00 201 529 2.050 10000.000 0.000 1.494
94 282.00 1500.00 218 508 2.050 10000.000 0.000 1.494
95 285.00 1500.00 210 526 2.050 10000.000 0.000 1.494
96 288.00 1500.00 235 535 2.050 10000.000 0.000 1.494
97 291.00 1500.00 187 569 2.050 10000.000 0.000 1.494
98 294.00 1500.00 203 574 2.050 10000.000 0.000 1.494
99 297.00 1500.00 215 579 2.050 10000.000 0.000 1.494
100 300.00 1500.00 230 574 2.050 10000.000 0.000 1.494
101 303.00 1500.00 217 552 2.050 10000.000 0.000 1.494
102 306.00 1500.00 217 537 2.050 10000.000 0.000 1.494
103 309.00 1500.00 202 538 2.050 10000.000 0.000 1.494
104 312.00 1500.00 208 544 2.050 10000.000 0.000 1.494
105 315.00 1500.00 205 604 2.050 10000.000 0.000 1.494
106 318.00 1500.00 195 533 2.050 10000.000 0.000 1.494
107 321.00 1500.00 209 575 2.050 10000.000 0.000 1.494
108 324.00 1500.00 193 558 2.050 10000.000 0.000 1.494
109 327.00 1500.00 213 556 2.050 10000.000 0.000 1.494
110 330.00 1500.00 206 535 2.050 10000.000 0.000 1.494
111 333.00 1500.00 229 497 2.050 10000.000 0.000 1.494
112 336.00 1500.00 227 504 2.050 10000.000 0.000 1.494
113 339.00 1500.00 177 533 2.050 10000.000 0.000 1.494
114 342.00 1500.00 210 502 2.050 10000.000 0.000 1.494
115 345.00 1500.00 217 595 2.050 10000.000 0.000 1.494
116 348.00 1500.00 221 546 2.050 10000.000 0.000 1.494
117 351.00 1500.00 214 530 2.050 10000.000 0.000 1.494
118 354.00 1500.00 211 535 2.050 10000.000 0.000 1.494
119 357.00 1500.00 193 558 2.050 10000.000 0.000 1.494
120 360.00 1500.00 211 528 2.050 10000.000 0.000 1.494
121 363.00 1500.00 212 547 2.050 10000.000 0.000 1.494
122 366.00 1500.00 206 540 2.050 10000.000 0.000 1.494
123 369.00 1500.00 202 517 2.050 10000.000 0.000 1.494
124 372.00 1500.00 231 519 2.050 10000.000 0.000 1.494
125 375.00 1500.00 225 529 2.050 10000.000 0.000 1.494
126 378.00 1500.00 245 475 2.050 10000.000 0.000 1.494
127 381.00 1500.00 221 510 2.050 10000.000 0.000 1.494
128 384.00 1500.00 212 570 2.050 10000.000 0.000 1.494
129 387.00 1500.00 225 547 2.050 10000.000 0.000 1.494
130 390.00 1500.00 230 545 2.050 10000.000 0.000 1.494
131 393.00 1500.00 223 530 2.050 10000.000 0.000 1.494
132 396.00 1500.00 224 552 2.050 10000.000 0.000 1.494
133 399.00 1500.00 219 504 2.050 10000.000 0.000 1.494
134 402.00 1500.00 218 531 2.050 10000.000 0.000 1.494
