# BinNR microsec tot-time (s)  O-Beam AUX Ampl(V) f(Hz) phase(deg) chi(pos)
0 0.00 1500.01 170 480 2.050 10000.000 0.000 0.330
1 3.00 1500.01 352 992 2.050 10000.000 0.000 0.330
2 6.00 1500.01 409 977 2.050 10000.000 0.000 0.330
3 9.00 1500.01 375 942 2.050 10000.000 0.000 0.330
4 12.00 1500.01 345 992 2.050 10000.000 0.000 0.330
5 15.00 1500.01 326 1029 2.050 10000.000 0.000 0.330
6 18.00 1500.01 364 1063 2.050 10000.000 0.000 0.330
7 21.00 1500.01 360 1082 2.050 10000.000 0.000 0.330
8 24.00 1500.01 381 1003 2.050 10000.000 0.000 0.330
9 27.00 1500.01 357 919 2.050 10000.000 0.000 0.330
10 30.00 1500.01 351 951 2.050 10000.000 0.000 0.330
11 33.00 1500.01 329 1071 2.050 10000.000 0.000 0.330
12 36.00 1500.01 367 956 2.050 10000.000 0.000 0.330
13 39.00 1500.01 391 1005 2.050 10000.000 0.000 0.330
14 42.00 1500.01 346 1083 2.050 10000.000 0.000 0.330
15 45.00 1500.01 351 996 2.050 10000.000 0.000 0.330
16 48.00 1500.01 368 1012 2.050 10000.000 0.000 0.330
17 51.00 1500.01 357 1000 2.050 10000.000 0.000 0.330
18 54.00 1500.01 375 966 2.050 10000.000 0.000 0.330
19 57.00 1500.01 371 984 2.050 10000.000 0.000 0.330
20 60.00 1500.01 379 996 2.050 10000.000 0.000 0.330
21 63.00 1500.01 351 1021 2.050 10000.000 0.000 0.330
22 66.00 1500.01 386 1057 2.050 10000.000 0.000 0.330
23 69.00 1500.01 388 1005 2.050 10000.000 0.000 0.330
24 72.00 1500.01 386 1043 2.050 10000.000 0.000 0.330
25 75.00 1500.01 368 975 2.050 10000.000 0.000 0.330
26 78.00 1500.01 368 1067 2.050 10000.000 0.000 0.330
27 81.00 1500.01 335 1025 2.050 10000.000 0.000 0.330
28 84.00 1500.01 363 952 2.050 10000.000 0.000 0.330
29 87.00 1500.01 339 1034 2.050 10000.000 0.000 0.330
30 90.00 1500.01 388 1049 2.050 10000.000 0.000 0.330
31 93.00 1500.01 341 996 2.050 10000.000 0.000 0.330
32 96.00 1500.01 352 981 2.050 10000.000 0.000 0.330
33 99.00 1500.01 368 1025 2.050 10000.000 0.000 0.330
34 102.00 1500.01 393 967 2.050 10000.000 0.000 0.330
35 105.00 1500.01 365 993 2.050 10000.000 0.000 0.330
36 108.00 1500.01 365 1081 2.050 10000.000 0.000 0.330
37 111.00 1500.01 341 972 2.050 10000.000 0.000 0.330
38 114.00 1500.01 345 1088 2.050 10000.000 0.000 0.330
39 117.00 1500.01 373 953 2.050 10000.000 0.000 0.330
40 120.00 1500.01 394 1019 2.050 10000.000 0.000 0.330
41 123.00 1500.01 320 991 2.050 10000.000 0.000 0.330
42 126.00 1500.01 379 953 2.050 10000.000 0.000 0.330
43 129.00 1500.01 393 984 2.050 10000.000 0.000 0.330
44 132.00 1500.01 379 1001 2.050 10000.000 0.000 0.330
45 135.00 1500.01 397 1079 2.050 10000.000 0.000 0.330
46 138.00 1500.01 353 1026 2.050 10000.000 0.000 0.330
47 141.00 1500.01 342 1015 2.050 10000.000 0.000 0.330
48 144.00 1500.01 340 988 2.050 10000.000 0.000 0.330
49 147.00 1500.01 346 1036 2.050 10000.000 0.000 0.330
50 150.00 1500.01 372 990 2.050 10000.000 0.000 0.330
51 153.00 1500.01 346 1013 2.050 10000.000 0.000 0.330
52 156.00 1500.01 386 1032 2.050 10000.000 0.000 0.330
53 159.00 1500.01 393 988 2.050 10000.000 0.000 0.330
54 162.00 1500.01 378 1001 2.050 10000.000 0.000 0.330
55 165.00 1500.01 347 963 2.050 10000.000 0.000 0.330
56 168.00 1500.01 395 992 2.050 10000.000 0.000 0.330
57 171.00 1500.01 374 1005 2.050 10000.000 0.000 0.330
58 174.00 1500.01 346 963 2.050 10000.000 0.000 0.330
59 177.00 1500.01 334 1034 2.050 10000.000 0.000 0.330
60 180.00 1500.01 326 1003 2.050 10000.000 0.000 0.330
61 183.00 1500.01 350 978 2.050 10000.000 0.000 0.330
62 186.00 1500.01 395 999 2.050 10000.000 0.000 0.330
63 189.00 1500.01 354 1035 2.050 10000.000 0.000 0.330
64 192.00 1500.01 379 1033 2.050 10000.000 0.000 0.330
65 195.00 1500.01 362 1006 2.050 10000.000 0.000 0.330
66 198.00 1500.01 364 989 2.050 10000.000 0.000 0.330
67 201.00 1500.01 395 1008 2.050 10000.000 0.000 0.330
68 204.00 1500.01 365 980 2.050 10000.000 0.000 0.330
69 207.00 1500.01 358 952 2.050 10000.000 0.000 0.330
70 210.00 1500.01 374 993 2.050 10000.000 0.000 0.330
71 213.00 1500.01 355 999 2.050 10000.000 0.000 0.330
72 216.00 1500.01 349 984 2.050 10000.000 0.000 0.330
73 219.00 1500.01 356 967 2.050 10000.000 0.000 0.330
74 222.00 1500.01 359 1034 2.050 10000.000 0.000 0.330
75 225.00 1500.01 330 1001 2.050 10000.000 0.000 0.330
76 228.00 1500.01 404 984 2.050 10000.000 0.000 0.330
77 231.00 1500.01 361 1020 2.050 10000.000 0.000 0.330
78 234.00 1500.01 368 1040 2.050 10000.000 0.000 0.330
79 237.00 1500.01 340 1050 2.050 10000.000 0.000 0.330
80 240.00 1500.01 364 977 2.050 10000.000 0.000 0.330
81 243.00 1500.01 339 1035 2.050 10000.000 0.000 0.330
82 246.00 1500.01 375 985 2.050 10000.000 0.000 0.330
83 249.00 1500.01 369 964 2.050 10000.000 0.000 0.330
84 252.00 1500.01 340 1040 2.050 10000.000 0.000 0.330
85 255.00 1500.01 337 965 2.050 10000.000 0.000 0.330
86 258.00 1500.01 356 1038 2.050 10000.000 0.000 0.330
87 261.00 1500.01 341 1020 2.050 10000.000 0.000 0.330
88 264.00 1500.01 384 1033 2.050 10000.000 0.000 0.330
89 267.00 1500.01 347 1020 2.050 10000.000 0.000 0.330
90 270.00 1500.01 351 994 2.050 10000.000 0.000 0.330
91 273.00 1500.01 381 971 2.050 10000.000 0.000 0.330
92 276.00 1500.01 349 1016 2.050 10000.000 0.000 0.330
93 279.00 1500.01 316 997 2.050 10000.000 0.000 0.330
94 282.00 1500.01 360 1071 2.050 10000.000 0.000 0.330
95 285.00 1500.01 334 991 2.050 10000.000 0.000 0.330
96 288.00 1500.01 356 989 2.050 10000.000 0.000 0.330
97 291.00 1500.01 357 994 2.050 10000.000 0.000 0.330
98 294.00 1500.01 382 1023 2.050 10000.000 0.000 0.330
99 297.00 1500.01 372 1004 2.050 10000.000 0.000 0.330
100 300.00 1500.01 337 1007 2.050 10000.000 0.000 0.330
101 303.00 1500.01 381 1048 2.050 10000.000 0.000 0.330
102 306.00 1500.01 374 1092 2.050 10000.000 0.000 0.330
103 309.00 1500.01 355 913 2.050 10000.000 0.000 0.330
104 312.00 1500.01 343 1002 2.050 10000.000 0.000 0.330
105 315.00 1500.01 367 1038 2.050 10000.000 0.000 0.330
106 318.00 1500.01 398 984 2.050 10000.000 0.000 0.330
107 321.00 1500.01 362 946 2.050 10000.000 0.000 0.330
108 324.00 1500.01 358 957 2.050 10000.000 0.000 0.330
109 327.00 1500.01 384 1006 2.050 10000.000 0.000 0.330
110 330.00 1500.01 390 1097 2.050 10000.000 0.000 0.330
111 333.00 1500.01 369 991 2.050 10000.000 0.000 0.330
112 336.00 1500.01 367 1054 2.050 10000.000 0.000 0.330
113 339.00 1500.01 344 983 2.050 10000.000 0.000 0.330
114 342.00 1500.01 353 1020 2.050 10000.000 0.000 0.330
115 345.00 1500.01 348 960 2.050 10000.000 0.000 0.330
116 348.00 1500.01 339 1023 2.050 10000.000 0.000 0.330
117 351.00 1500.01 372 997 2.050 10000.000 0.000 0.330
118 354.00 1500.01 372 1043 2.050 10000.000 0.000 0.330
119 357.00 1500.01 337 981 2.050 10000.000 0.000 0.330
120 360.00 1500.01 370 1060 2.050 10000.000 0.000 0.330
121 363.00 1500.01 368 1030 2.050 10000.000 0.000 0.330
122 366.00 1500.01 356 995 2.050 10000.000 0.000 0.330
123 369.00 1500.01 365 1002 2.050 10000.000 0.000 0.330
124 372.00 1500.01 380 1053 2.050 10000.000 0.000 0.330
125 375.00 1500.01 349 1025 2.050 10000.000 0.000 0.330
126 378.00 1500.01 353 1034 2.050 10000.000 0.000 0.330
127 381.00 1500.01 376 968 2.050 10000.000 0.000 0.330
128 384.00 1500.01 358 1020 2.050 10000.000 0.000 0.330
129 387.00 1500.01 404 1009 2.050 10000.000 0.000 0.330
130 390.00 1500.01 371 1049 2.050 10000.000 0.000 0.330
131 393.00 1500.01 346 1032 2.050 10000.000 0.000 0.330
132 396.00 1500.01 360 1024 2.050 10000.000 0.000 0.330
133 399.00 1500.01 362 993 2.050 10000.000 0.000 0.330
134 402.00 1500.01 418 1001 2.050 10000.000 0.000 0.330
