# BinNR microsec tot-time (s)  O-Beam AUX Ampl(V) f(Hz) phase(deg) chi(pos)
0 0.00 1500.01 90 140 2.050 10000.000 0.000 -1.165
1 3.00 1500.01 198 283 2.050 10000.000 0.000 -1.165
2 6.00 1500.01 207 281 2.050 10000.000 0.000 -1.165
3 9.00 1500.01 190 276 2.050 10000.000 0.000 -1.165
4 12.00 1500.01 203 257 2.050 10000.000 0.000 -1.165
5 15.00 1500.01 192 306 2.050 10000.000 0.000 -1.165
6 18.00 1500.01 202 294 2.050 10000.000 0.000 -1.165
7 21.00 1500.01 160 279 2.050 10000.000 0.000 -1.165
8 24.00 1500.01 177 293 2.050 10000.000 0.000 -1.165
9 27.00 1500.01 190 306 2.050 10000.000 0.000 -1.165
10 30.00 1500.01 165 309 2.050 10000.000 0.000 -1.165
11 33.00 1500.01 178 289 2.050 10000.000 0.000 -1.165
12 36.00 1500.01 170 287 2.050 10000.000 0.000 -1.165
13 39.00 1500.01 172 287 2.050 10000.000 0.000 -1.165
14 42.00 1500.01 183 302 2.050 10000.000 0.000 -1.165
15 45.00 1500.01 186 287 2.050 10000.000 0.000 -1.165
16 48.00 1500.01 179 312 2.050 10000.000 0.000 -1.165
17 51.00 1500.01 173 316 2.050 10000.000 0.000 -1.165
18 54.00 1500.01 182 285 2.050 10000.000 0.000 -1.165
19 57.00 1500.01 220 312 2.050 10000.000 0.000 -1.165
20 60.00 1500.01 189 267 2.050 10000.000 0.000 -1.165
21 63.00 1500.01 188 259 2.050 10000.000 0.000 -1.165
22 66.00 1500.01 207 279 2.050 10000.000 0.000 -1.165
23 69.00 1500.01 179 250 2.050 10000.000 0.000 -1.165
24 72.00 1500.01 175 283 2.050 10000.000 0.000 -1.165
25 75.00 1500.01 217 308 2.050 10000.000 0.000 -1.165
26 78.00 1500.01 216 308 2.050 10000.000 0.000 -1.165
27 81.00 1500.01 207 307 2.050 10000.000 0.000 -1.165
28 84.00 1500.01 215 282 2.050 10000.000 0.000 -1.165
29 87.00 1500.01 206 266 2.050 10000.000 0.000 -1.165
30 90.00 1500.01 209 272 2.050 10000.000 0.000 -1.165
31 93.00 1500.01 194 286 2.050 10000.000 0.000 -1.165
32 96.00 1500.01 200 291 2.050 10000.000 0.000 -1.165
33 99.00 1500.01 203 333 2.050 10000.000 0.000 -1.165
34 102.00 1500.01 203 302 2.050 10000.000 0.000 -1.165
35 105.00 1500.01 187 263 2.050 10000.000 0.000 -1.165
36 108.00 1500.01 190 233 2.050 10000.000 0.000 -1.165
37 111.00 1500.01 198 271 2.050 10000.000 0.000 -1.165
38 114.00 1500.01 180 280 2.050 10000.000 0.000 -1.165
39 117.00 1500.01 215 285 2.050 10000.000 0.000 -1.165
40 120.00 1500.01 181 261 2.050 10000.000 0.000 -1.165
41 123.00 1500.01 201 299 2.050 10000.000 0.000 -1.165
42 126.00 1500.01 203 314 2.050 10000.000 0.000 -1.165
43 129.00 1500.01 197 282 2.050 10000.000 0.000 -1.165
44 132.00 1500.01 195 276 2.050 10000.000 0.000 -1.165
45 135.00 1500.01 202 293 2.050 10000.000 0.000 -1.165
46 138.00 1500.01 161 297 2.050 10000.000 0.000 -1.165
47 141.00 1500.01 207 295 2.050 10000.000 0.000 -1.165
48 144.00 1500.01 173 294 2.050 10000.000 0.000 -1.165
49 147.00 1500.01 191 248 2.050 10000.000 0.000 -1.165
50 150.00 1500.01 203 302 2.050 10000.000 0.000 -1.165
51 153.00 1500.01 192 267 2.050 10000.000 0.000 -1.165
52 156.00 1500.01 182 264 2.050 10000.000 0.000 -1.165
53 159.00 1500.01 184 302 2.050 10000.000 0.000 -1.165
54 162.00 1500.01 220 274 2.050 10000.000 0.000 -1.165
55 165.00 1500.01 166 300 2.050 10000.000 0.000 -1.165
56 168.00 1500.01 173 270 2.050 10000.000 0.000 -1.165
57 171.00 1500.01 205 292 2.050 10000.000 0.000 -1.165
58 174.00 1500.01 196 253 2.050 10000.000 0.000 -1.165
59 177.00 1500.01 197 295 2.050 10000.000 0.000 -1.165
60 180.00 1500.01 210 275 2.050 10000.000 0.000 -1.165
61 183.00 1500.01 168 288 2.050 10000.000 0.000 -1.165
62 186.00 1500.01 189 310 2.050 10000.000 0.000 -1.165
63 189.00 1500.01 168 286 2.050 10000.000 0.000 -1.165
64 192.00 1500.01 183 302 2.050 10000.000 0.000 -1.165
65 195.00 1500.01 205 277 2.050 10000.000 0.000 -1.165
66 198.00 1500.01 199 281 2.050 10000.000 0.000 -1.165
67 201.00 1500.01 191 285 2.050 10000.000 0.000 -1.165
68 204.00 1500.01 175 291 2.050 10000.000 0.000 -1.165
69 207.00 1500.01 196 261 2.050 10000.000 0.000 -1.165
70 210.00 1500.01 213 288 2.050 10000.000 0.000 -1.165
71 213.00 1500.01 187 291 2.050 10000.000 0.000 -1.165
72 216.00 1500.01 205 298 2.050 10000.000 0.000 -1.165
73 219.00 1500.01 191 255 2.050 10000.000 0.000 -1.165
74 222.00 1500.01 188 309 2.050 10000.000 0.000 -1.165
75 225.00 1500.01 202 258 2.050 10000.000 0.000 -1.165
76 228.00 1500.01 188 296 2.050 10000.000 0.000 -1.165
77 231.00 1500.01 216 286 2.050 10000.000 0.000 -1.165
78 234.00 1500.01 214 264 2.050 10000.000 0.000 -1.165
79 237.00 1500.01 193 283 2.050 10000.000 0.000 -1.165
80 240.00 1500.01 204 309 2.050 10000.000 0.000 -1.165
81 243.00 1500.01 177 306 2.050 10000.000 0.000 -1.165
82 246.00 1500.01 193 298 2.050 10000.000 0.000 -1.165
83 249.00 1500.01 202 296 2.050 10000.000 0.000 -1.165
84 252.00 1500.01 204 293 2.050 10000.000 0.000 -1.165
85 255.00 1500.01 175 263 2.050 10000.000 0.000 -1.165
86 258.00 1500.01 202 266 2.050 10000.000 0.000 -1.165
87 261.00 1500.01 193 256 2.050 10000.000 0.000 -1.165
88 264.00 1500.01 177 306 2.050 10000.000 0.000 -1.165
89 267.00 1500.01 204 275 2.050 10000.000 0.000 -1.165
90 270.00 1500.01 222 294 2.050 10000.000 0.000 -1.165
91 273.00 1500.01 231 284 2.050 10000.000 0.000 -1.165
92 276.00 1500.01 184 272 2.050 10000.000 0.000 -1.165
93 279.00 1500.01 186 291 2.050 10000.000 0.000 -1.165
94 282.00 1500.01 190 261 2.050 10000.000 0.000 -1.165
95 285.00 1500.01 177 295 2.050 10000.000 0.000 -1.165
96 288.00 1500.01 206 275 2.050 10000.000 0.000 -1.165
97 291.00 1500.01 160 273 2.050 10000.000 0.000 -1.165
98 294.00 1500.01 192 280 2.050 10000.000 0.000 -1.165
99 297.00 1500.01 177 280 2.050 10000.000 0.000 -1.165
100 300.00 1500.01 202 296 2.050 10000.000 0.000 -1.165
101 303.00 1500.01 168 287 2.050 10000.000 0.000 -1.165
102 306.00 1500.01 198 274 2.050 10000.000 0.000 -1.165
103 309.00 1500.01 194 306 2.050 10000.000 0.000 -1.165
104 312.00 1500.01 208 311 2.050 10000.000 0.000 -1.165
105 315.00 1500.01 193 281 2.050 10000.000 0.000 -1.165
106 318.00 1500.01 185 291 2.050 10000.000 0.000 -1.165
107 321.00 1500.01 200 258 2.050 10000.000 0.000 -1.165
108 324.00 1500.01 190 295 2.050 10000.000 0.000 -1.165
109 327.00 1500.01 181 281 2.050 10000.000 0.000 -1.165
110 330.00 1500.01 173 299 2.050 10000.000 0.000 -1.165
111 333.00 1500.01 182 289 2.050 10000.000 0.000 -1.165
112 336.00 1500.01 187 283 2.050 10000.000 0.000 -1.165
113 339.00 1500.01 173 253 2.050 10000.000 0.000 -1.165
114 342.00 1500.01 182 281 2.050 10000.000 0.000 -1.165
115 345.00 1500.01 178 275 2.050 10000.000 0.000 -1.165
116 348.00 1500.01 185 302 2.050 10000.000 0.000 -1.165
117 351.00 1500.01 196 276 2.050 10000.000 0.000 -1.165
118 354.00 1500.01 211 298 2.050 10000.000 0.000 -1.165
119 357.00 1500.01 181 285 2.050 10000.000 0.000 -1.165
120 360.00 1500.01 190 319 2.050 10000.000 0.000 -1.165
121 363.00 1500.01 177 274 2.050 10000.000 0.000 -1.165
122 366.00 1500.01 186 288 2.050 10000.000 0.000 -1.165
123 369.00 1500.01 209 276 2.050 10000.000 0.000 -1.165
124 372.00 1500.01 196 318 2.050 10000.000 0.000 -1.165
125 375.00 1500.01 205 291 2.050 10000.000 0.000 -1.165
126 378.00 1500.01 166 282 2.050 10000.000 0.000 -1.165
127 381.00 1500.01 173 270 2.050 10000.000 0.000 -1.165
128 384.00 1500.01 194 261 2.050 10000.000 0.000 -1.165
129 387.00 1500.01 180 297 2.050 10000.000 0.000 -1.165
130 390.00 1500.01 185 282 2.050 10000.000 0.000 -1.165
131 393.00 1500.01 167 285 2.050 10000.000 0.000 -1.165
132 396.00 1500.01 176 282 2.050 10000.000 0.000 -1.165
133 399.00 1500.01 168 286 2.050 10000.000 0.000 -1.165
134 402.00 1500.01 190 268 2.050 10000.000 0.000 -1.165
