# BinNR microsec tot-time (s)  O-Beam AUX Ampl(V) f(Hz) phase(deg) chi(pos)
0 0.00 1500.00 168 361 2.050 10000.000 0.000 -1.505
1 3.00 1500.00 318 758 2.050 10000.000 0.000 -1.505
2 6.00 1500.00 314 800 2.050 10000.000 0.000 -1.505
3 9.00 1500.00 357 759 2.050 10000.000 0.000 -1.505
4 12.00 1500.00 307 785 2.050 10000.000 0.000 -1.505
5 15.00 1500.00 286 754 2.050 10000.000 0.000 -1.505
6 18.00 1500.00 330 842 2.050 10000.000 0.000 -1.505
7 21.00 1500.00 289 826 2.050 10000.000 0.000 -1.505
8 24.00 1500.00 312 813 2.050 10000.000 0.000 -1.505
9 27.00 1500.00 287 822 2.050 10000.000 0.000 -1.505
10 30.00 1500.00 342 751 2.050 10000.000 0.000 -1.505
11 33.00 1500.00 293 798 2.050 10000.000 0.000 -1.505
12 36.00 1500.00 281 797 2.050 10000.000 0.000 -1.505
13 39.00 1500.00 319 740 2.050 10000.000 0.000 -1.505
14 42.00 1500.00 309 820 2.050 10000.000 0.000 -1.505
15 45.00 1500.00 307 805 2.050 10000.000 0.000 -1.505
16 48.00 1500.00 329 771 2.050 10000.000 0.000 -1.505
17 51.00 1500.00 321 748 2.050 10000.000 0.000 -1.505
18 54.00 1500.00 300 732 2.050 10000.000 0.000 -1.505
19 57.00 1500.00 314 777 2.050 10000.000 0.000 -1.505
20 60.00 1500.00 319 782 2.050 10000.000 0.000 -1.505
21 63.00 1500.00 327 811 2.050 10000.000 0.000 -1.505
22 66.00 1500.00 349 808 2.050 10000.000 0.000 -1.505
23 69.00 1500.00 324 776 2.050 10000.000 0.000 -1.505
24 72.00 1500.00 303 792 2.050 10000.000 0.000 -1.505
25 75.00 1500.00 321 727 2.050 10000.000 0.000 -1.505
26 78.00 1500.00 320 825 2.050 10000.000 0.000 -1.505
27 81.00 1500.00 285 751 2.050 10000.000 0.000 -1.505
28 84.00 1500.00 318 840 2.050 10000.000 0.000 -1.505
29 87.00 1500.00 304 784 2.050 10000.000 0.000 -1.505
30 90.00 1500.00 298 826 2.050 10000.000 0.000 -1.505
31 93.00 1500.00 301 796 2.050 10000.000 0.000 -1.505
32 96.00 1500.00 302 784 2.050 10000.000 0.000 -1.505
33 99.00 1500.00 288 798 2.050 10000.000 0.000 -1.505
34 102.00 1500.00 342 768 2.050 10000.000 0.000 -1.505
35 105.00 1500.00 327 780 2.050 10000.000 0.000 -1.505
36 108.00 1500.00 280 791 2.050 10000.000 0.000 -1.505
37 111.00 1500.00 304 790 2.050 10000.000 0.000 -1.505
38 114.00 1500.00 307 776 2.050 10000.000 0.000 -1.505
39 117.00 1500.00 284 826 2.050 10000.000 0.000 -1.505
40 120.00 1500.00 306 828 2.050 10000.000 0.000 -1.505
41 123.00 1500.00 330 798 2.050 10000.000 0.000 -1.505
42 126.00 1500.00 332 821 2.050 10000.000 0.000 -1.505
43 129.00 1500.00 327 832 2.050 10000.000 0.000 -1.505
44 132.00 1500.00 337 767 2.050 10000.000 0.000 -1.505
45 135.00 1500.00 307 744 2.050 10000.000 0.000 -1.505
46 138.00 1500.00 337 752 2.050 10000.000 0.000 -1.505
47 141.00 1500.00 315 844 2.050 10000.000 0.000 -1.505
48 144.00 1500.00 311 843 2.050 10000.000 0.000 -1.505
49 147.00 1500.00 300 738 2.050 10000.000 0.000 -1.505
50 150.00 1500.00 329 808 2.050 10000.000 0.000 -1.505
51 153.00 1500.00 303 748 2.050 10000.000 0.000 -1.505
52 156.00 1500.00 295 754 2.050 10000.000 0.000 -1.505
53 159.00 1500.00 348 788 2.050 10000.000 0.000 -1.505
54 162.00 1500.00 331 764 2.050 10000.000 0.000 -1.505
55 165.00 1500.00 301 782 2.050 10000.000 0.000 -1.505
56 168.00 1500.00 309 788 2.050 10000.000 0.000 -1.505
57 171.00 1500.00 317 729 2.050 10000.000 0.000 -1.505
58 174.00 1500.00 293 813 2.050 10000.000 0.000 -1.505
59 177.00 1500.00 301 727 2.050 10000.000 0.000 -1.505
60 180.00 1500.00 315 809 2.050 10000.000 0.000 -1.505
61 183.00 1500.00 324 754 2.050 10000.000 0.000 -1.505
62 186.00 1500.00 304 807 2.050 10000.000 0.000 -1.505
63 189.00 1500.00 285 809 2.050 10000.000 0.000 -1.505
64 192.00 1500.00 323 815 2.050 10000.000 0.000 -1.505
65 195.00 1500.00 316 798 2.050 10000.000 0.000 -1.505
66 198.00 1500.00 344 775 2.050 10000.000 0.000 -1.505
67 201.00 1500.00 313 723 2.050 10000.000 0.000 -1.505
68 204.00 1500.00 311 801 2.050 10000.000 0.000 -1.505
69 207.00 1500.00 324 711 2.050 10000.000 0.000 -1.505
70 210.00 1500.00 308 844 2.050 10000.000 0.000 -1.505
71 213.00 1500.00 319 730 2.050 10000.000 0.000 -1.505
72 216.00 1500.00 300 834 2.050 10000.000 0.000 -1.505
73 219.00 1500.00 314 755 2.050 10000.000 0.000 -1.505
74 222.00 1500.00 332 786 2.050 10000.000 0.000 -1.505
75 225.00 1500.00 324 773 2.050 10000.000 0.000 -1.505
76 228.00 1500.00 303 814 2.050 10000.000 0.000 -1.505
77 231.00 1500.00 306 757 2.050 10000.000 0.000 -1.505
78 234.00 1500.00 332 768 2.050 10000.000 0.000 -1.505
79 237.00 1500.00 306 775 2.050 10000.000 0.000 -1.505
80 240.00 1500.00 324 748 2.050 10000.000 0.000 -1.505
81 243.00 1500.00 317 805 2.050 10000.000 0.000 -1.505
82 246.00 1500.00 331 790 2.050 10000.000 0.000 -1.505
83 249.00 1500.00 297 796 2.050 10000.000 0.000 -1.505
84 252.00 1500.00 329 796 2.050 10000.000 0.000 -1.505
85 255.00 1500.00 310 783 2.050 10000.000 0.000 -1.505
86 258.00 1500.00 295 756 2.050 10000.000 0.000 -1.505
87 261.00 1500.00 299 771 2.050 10000.000 0.000 -1.505
88 264.00 1500.00 325 786 2.050 10000.000 0.000 -1.505
89 267.00 1500.00 303 741 2.050 10000.000 0.000 -1.505
90 270.00 1500.00 280 808 2.050 10000.000 0.000 -1.505
91 273.00 1500.00 323 792 2.050 10000.000 0.000 -1.505
92 276.00 1500.00 298 809 2.050 10000.000 0.000 -1.505
93 279.00 1500.00 321 757 2.050 10000.000 0.000 -1.505
94 282.00 1500.00 297 803 2.050 10000.000 0.000 -1.505
95 285.00 1500.00 308 770 2.050 10000.000 0.000 -1.505
96 288.00 1500.00 309 775 2.050 10000.000 0.000 -1.505
97 291.00 1500.00 291 732 2.050 10000.000 0.000 -1.505
98 294.00 1500.00 281 837 2.050 10000.000 0.000 -1.505
99 297.00 1500.00 286 773 2.050 10000.000 0.000 -1.505
100 300.00 1500.00 307 770 2.050 10000.000 0.000 -1.505
101 303.00 1500.00 310 801 2.050 10000.000 0.000 -1.505
102 306.00 1500.00 306 768 2.050 10000.000 0.000 -1.505
103 309.00 1500.00 320 761 2.050 10000.000 0.000 -1.505
104 312.00 1500.00 311 765 2.050 10000.000 0.000 -1.505
105 315.00 1500.00 338 785 2.050 10000.000 0.000 -1.505
106 318.00 1500.00 311 825 2.050 10000.000 0.000 -1.505
107 321.00 1500.00 329 810 2.050 10000.000 0.000 -1.505
108 324.00 1500.00 318 792 2.050 10000.000 0.000 -1.505
109 327.00 1500.00 322 813 2.050 10000.000 0.000 -1.505
110 330.00 1500.00 343 805 2.050 10000.000 0.000 -1.505
111 333.00 1500.00 315 792 2.050 10000.000 0.000 -1.505
112 336.00 1500.00 303 789 2.050 10000.000 0.000 -1.505
113 339.00 1500.00 306 850 2.050 10000.000 0.000 -1.505
114 342.00 1500.00 316 762 2.050 10000.000 0.000 -1.505
115 345.00 1500.00 315 796 2.050 10000.000 0.000 -1.505
116 348.00 1500.00 318 770 2.050 10000.000 0.000 -1.505
117 351.00 1500.00 346 742 2.050 10000.000 0.000 -1.505
118 354.00 1500.00 332 820 2.050 10000.000 0.000 -1.505
119 357.00 1500.00 274 785 2.050 10000.000 0.000 -1.505
120 360.00 1500.00 330 758 2.050 10000.000 0.000 -1.505
121 363.00 1500.00 295 823 2.050 10000.000 0.000 -1.505
122 366.00 1500.00 326 795 2.050 10000.000 0.000 -1.505
123 369.00 1500.00 318 787 2.050 10000.000 0.000 -1.505
124 372.00 1500.00 315 808 2.050 10000.000 0.000 -1.505
125 375.00 1500.00 297 761 2.050 10000.000 0.000 -1.505
126 378.00 1500.00 289 803 2.050 10000.000 0.000 -1.505
127 381.00 1500.00 307 765 2.050 10000.000 0.000 -1.505
128 384.00 1500.00 305 823 2.050 10000.000 0.000 -1.505
129 387.00 1500.00 313 773 2.050 10000.000 0.000 -1.505
130 390.00 1500.00 277 717 2.050 10000.000 0.000 -1.505
131 393.00 1500.00 316 769 2.050 10000.000 0.000 -1.505
132 396.00 1500.00 323 782 2.050 10000.000 0.000 -1.505
133 399.00 1500.00 331 778 2.050 10000.000 0.000 -1.505
134 402.00 1500.00 322 808 2.050 10000.000 0.000 -1.505
