# BinNR microsec tot-time (s)  O-Beam AUX Ampl(V) f(Hz) phase(deg) chi(pos)
0 0.00 1500.00 158 409 2.050 10000.000 0.000 0.505
1 3.00 1500.00 306 766 2.050 10000.000 0.000 0.505
2 6.00 1500.00 304 744 2.050 10000.000 0.000 0.505
3 9.00 1500.00 357 723 2.050 10000.000 0.000 0.505
4 12.00 1500.00 315 733 2.050 10000.000 0.000 0.505
5 15.00 1500.00 311 748 2.050 10000.000 0.000 0.505
6 18.00 1500.00 303 789 2.050 10000.000 0.000 0.505
7 21.00 1500.00 303 743 2.050 10000.000 0.000 0.505
8 24.00 1500.00 328 770 2.050 10000.000 0.000 0.505
9 27.00 1500.00 293 790 2.050 10000.000 0.000 0.505
10 30.00 1500.00 319 737 2.050 10000.000 0.000 0.505
11 33.00 1500.00 304 744 2.050 10000.000 0.000 0.505
12 36.00 1500.00 346 790 2.050 10000.000 0.000 0.505
13 39.00 1500.00 299 746 2.050 10000.000 0.000 0.505
14 42.00 1500.00 320 734 2.050 10000.000 0.000 0.505
15 45.00 1500.00 294 775 2.050 10000.000 0.000 0.505
16 48.00 1500.00 297 744 2.050 10000.000 0.000 0.505
17 51.00 1500.00 292 802 2.050 10000.000 0.000 0.505
18 54.00 1500.00 340 759 2.050 10000.000 0.000 0.505
19 57.00 1500.00 310 804 2.050 10000.000 0.000 0.505
20 60.00 1500.00 319 759 2.050 10000.000 0.000 0.505
21 63.00 1500.00 295 800 2.050 10000.000 0.000 0.505
22 66.00 1500.00 310 800 2.050 10000.000 0.000 0.505
23 69.00 1500.00 308 764 2.050 10000.000 0.000 0.505
24 72.00 1500.00 307 843 2.050 10000.000 0.000 0.505
25 75.00 1500.00 273 781 2.050 10000.000 0.000 0.505
26 78.00 1500.00 313 741 2.050 10000.000 0.000 0.505
27 81.00 1500.00 299 725 2.050 10000.000 0.000 0.505
28 84.00 1500.00 325 782 2.050 10000.000 0.000 0.505
29 87.00 1500.00 302 683 2.050 10000.000 0.000 0.505
30 90.00 1500.00 326 747 2.050 10000.000 0.000 0.505
31 93.00 1500.00 317 704 2.050 10000.000 0.000 0.505
32 96.00 1500.00 280 759 2.050 10000.000 0.000 0.505
33 99.00 1500.00 320 734 2.050 10000.000 0.000 0.505
34 102.00 1500.00 336 760 2.050 10000.000 0.000 0.505
35 105.00 1500.00 323 734 2.050 10000.000 0.000 0.505
36 108.00 1500.00 324 777 2.050 10000.000 0.000 0.505
37 111.00 1500.00 311 744 2.050 10000.000 0.000 0.505
38 114.00 1500.00 302 736 2.050 10000.000 0.000 0.505
39 117.00 1500.00 325 755 2.050 10000.000 0.000 0.505
40 120.00 1500.00 280 738 2.050 10000.000 0.000 0.505
41 123.00 1500.00 315 727 2.050 10000.000 0.000 0.505
42 126.00 1500.00 334 783 2.050 10000.000 0.000 0.505
43 129.00 1500.00 298 742 2.050 10000.000 0.000 0.505
44 132.00 1500.00 311 726 2.050 10000.000 0.000 0.505
45 135.00 1500.00 312 733 2.050 10000.000 0.000 0.505
46 138.00 1500.00 319 743 2.050 10000.000 0.000 0.505
47 141.00 1500.00 319 749 2.050 10000.000 0.000 0.505
48 144.00 1500.00 306 759 2.050 10000.000 0.000 0.505
49 147.00 1500.00 333 758 2.050 10000.000 0.000 0.505
50 150.00 1500.00 302 793 2.050 10000.000 0.000 0.505
51 153.00 1500.00 282 724 2.050 10000.000 0.000 0.505
52 156.00 1500.00 336 722 2.050 10000.000 0.000 0.505
53 159.00 1500.00 338 724 2.050 10000.000 0.000 0.505
54 162.00 1500.00 324 720 2.050 10000.000 0.000 0.505
55 165.00 1500.00 311 692 2.050 10000.000 0.000 0.505
56 168.00 1500.00 311 704 2.050 10000.000 0.000 0.505
57 171.00 1500.00 341 767 2.050 10000.000 0.000 0.505
58 174.00 1500.00 330 784 2.050 10000.000 0.000 0.505
59 177.00 1500.00 300 745 2.050 10000.000 0.000 0.505
60 180.00 1500.00 318 741 2.050 10000.000 0.000 0.505
61 183.00 1500.00 326 725 2.050 10000.000 0.000 0.505
62 186.00 1500.00 310 720 2.050 10000.000 0.000 0.505
63 189.00 1500.00 332 740 2.050 10000.000 0.000 0.505
64 192.00 1500.00 300 739 2.050 10000.000 0.000 0.505
65 195.00 1500.00 307 795 2.050 10000.000 0.000 0.505
66 198.00 1500.00 317 745 2.050 10000.000 0.000 0.505
67 201.00 1500.00 312 807 2.050 10000.000 0.000 0.505
68 204.00 1500.00 322 785 2.050 10000.000 0.000 0.505
69 207.00 1500.00 335 736 2.050 10000.000 0.000 0.505
70 210.00 1500.00 327 836 2.050 10000.000 0.000 0.505
71 213.00 1500.00 331 744 2.050 10000.000 0.000 0.505
72 216.00 1500.00 285 755 2.050 10000.000 0.000 0.505
73 219.00 1500.00 304 774 2.050 10000.000 0.000 0.505
74 222.00 1500.00 335 713 2.050 10000.000 0.000 0.505
75 225.00 1500.00 309 735 2.050 10000.000 0.000 0.505
76 228.00 1500.00 293 759 2.050 10000.000 0.000 0.505
77 231.00 1500.00 325 748 2.050 10000.000 0.000 0.505
78 234.00 1500.00 307 717 2.050 10000.000 0.000 0.505
79 237.00 1500.00 307 731 2.050 10000.000 0.000 0.505
80 240.00 1500.00 316 741 2.050 10000.000 0.000 0.505
81 243.00 1500.00 271 715 2.050 10000.000 0.000 0.505
82 246.00 1500.00 313 737 2.050 10000.000 0.000 0.505
83 249.00 1500.00 294 760 2.050 10000.000 0.000 0.505
84 252.00 1500.00 323 801 2.050 10000.000 0.000 0.505
85 255.00 1500.00 280 745 2.050 10000.000 0.000 0.505
86 258.00 1500.00 302 726 2.050 10000.000 0.000 0.505
87 261.00 1500.00 306 692 2.050 10000.000 0.000 0.505
88 264.00 1500.00 290 779 2.050 10000.000 0.000 0.505
89 267.00 1500.00 286 751 2.050 10000.000 0.000 0.505
90 270.00 1500.00 291 786 2.050 10000.000 0.000 0.505
91 273.00 1500.00 332 737 2.050 10000.000 0.000 0.505
92 276.00 1500.00 323 713 2.050 10000.000 0.000 0.505
93 279.00 1500.00 301 705 2.050 10000.000 0.000 0.505
94 282.00 1500.00 309 789 2.050 10000.000 0.000 0.505
95 285.00 1500.00 283 736 2.050 10000.000 0.000 0.505
96 288.00 1500.00 313 801 2.050 10000.000 0.000 0.505
97 291.00 1500.00 303 748 2.050 10000.000 0.000 0.505
98 294.00 1500.00 282 733 2.050 10000.000 0.000 0.505
99 297.00 1500.00 314 699 2.050 10000.000 0.000 0.505
100 300.00 1500.00 268 757 2.050 10000.000 0.000 0.505
101 303.00 1500.00 308 722 2.050 10000.000 0.000 0.505
102 306.00 1500.00 315 722 2.050 10000.000 0.000 0.505
103 309.00 1500.00 292 779 2.050 10000.000 0.000 0.505
104 312.00 1500.00 336 738 2.050 10000.000 0.000 0.505
105 315.00 1500.00 306 753 2.050 10000.000 0.000 0.505
106 318.00 1500.00 347 709 2.050 10000.000 0.000 0.505
107 321.00 1500.00 308 706 2.050 10000.000 0.000 0.505
108 324.00 1500.00 338 787 2.050 10000.000 0.000 0.505
109 327.00 1500.00 298 711 2.050 10000.000 0.000 0.505
110 330.00 1500.00 305 755 2.050 10000.000 0.000 0.505
111 333.00 1500.00 276 744 2.050 10000.000 0.000 0.505
112 336.00 1500.00 295 771 2.050 10000.000 0.000 0.505
113 339.00 1500.00 295 733 2.050 10000.000 0.000 0.505
114 342.00 1500.00 300 726 2.050 10000.000 0.000 0.505
115 345.00 1500.00 302 744 2.050 10000.000 0.000 0.505
116 348.00 1500.00 334 768 2.050 10000.000 0.000 0.505
117 351.00 1500.00 293 696 2.050 10000.000 0.000 0.505
118 354.00 1500.00 334 731 2.050 10000.000 0.000 0.505
119 357.00 1500.00 321 751 2.050 10000.000 0.000 0.505
120 360.00 1500.00 307 780 2.050 10000.000 0.000 0.505
121 363.00 1500.00 282 765 2.050 10000.000 0.000 0.505
122 366.00 1500.00 303 711 2.050 10000.000 0.000 0.505
123 369.00 1500.00 311 767 2.050 10000.000 0.000 0.505
124 372.00 1500.00 290 738 2.050 10000.000 0.000 0.505
125 375.00 1500.00 298 727 2.050 10000.000 0.000 0.505
126 378.00 1500.00 307 681 2.050 10000.000 0.000 0.505
127 381.00 1500.00 305 791 2.050 10000.000 0.000 0.505
128 384.00 1500.00 354 815 2.050 10000.000 0.000 0.505
129 387.00 1500.00 316 798 2.050 10000.000 0.000 0.505
130 390.00 1500.00 336 751 2.050 10000.000 0.000 0.505
131 393.00 1500.00 275 754 2.050 10000.000 0.000 0.505
132 396.00 1500.00 336 803 2.050 10000.000 0.000 0.505
133 399.00 1500.00 328 736 2.050 10000.000 0.000 0.505
134 402.00 1500.00 296 746 2.050 10000.000 0.000 0.505
