# BinNR microsec tot-time (s)  O-Beam AUX Ampl(V) f(Hz) phase(deg) chi(pos)
0 0.00 1500.00 144 320 2.050 10000.000 0.000 -0.505
1 3.00 1500.00 257 711 2.050 10000.000 0.000 -0.505
2 6.00 1500.00 228 723 2.050 10000.000 0.000 -0.505
3 9.00 1500.00 253 758 2.050 10000.000 0.000 -0.505
4 12.00 1500.00 241 739 2.050 10000.000 0.000 -0.505
5 15.00 1500.00 272 727 2.050 10000.000 0.000 -0.505
6 18.00 1500.00 267 740 2.050 10000.000 0.000 -0.505
7 21.00 1500.00 254 739 2.050 10000.000 0.000 -0.505
8 24.00 1500.00 273 733 2.050 10000.000 0.000 -0.505
9 27.00 1500.00 245 701 2.050 10000.000 0.000 -0.505
10 30.00 1500.00 267 733 2.050 10000.000 0.000 -0.505
11 33.00 1500.00 275 751 2.050 10000.000 0.000 -0.505
12 36.00 1500.00 256 768 2.050 10000.000 0.000 -0.505
13 39.00 1500.00 252 749 2.050 10000.000 0.000 -0.505
14 42.00 1500.00 258 723 2.050 10000.000 0.000 -0.505
15 45.00 1500.00 262 726 2.050 10000.000 0.000 -0.505
16 48.00 1500.00 258 703 2.050 10000.000 0.000 -0.505
17 51.00 1500.00 257 738 2.050 10000.000 0.000 -0.505
18 54.00 1500.00 254 729 2.050 10000.000 0.000 -0.505
19 57.00 1500.00 285 737 2.050 10000.000 0.000 -0.505
20 60.00 1500.00 262 772 2.050 10000.000 0.000 -0.505
21 63.00 1500.00 239 692 2.050 10000.000 0.000 -0.505
22 66.00 1500.00 277 730 2.050 10000.000 0.000 -0.505
23 69.00 1500.00 237 720 2.050 10000.000 0.000 -0.505
24 72.00 1500.00 274 723 2.050 10000.000 0.000 -0.505
25 75.00 1500.00 244 696 2.050 10000.000 0.000 -0.505
26 78.00 1500.00 275 758 2.050 10000.000 0.000 -0.505
27 81.00 1500.00 266 687 2.050 10000.000 0.000 -0.505
28 84.00 1500.00 253 663 2.050 10000.000 0.000 -0.505
29 87.00 1500.00 283 694 2.050 10000.000 0.000 -0.505
30 90.00 1500.00 285 735 2.050 10000.000 0.000 -0.505
31 93.00 1500.00 280 750 2.050 10000.000 0.000 -0.505
32 96.00 1500.00 273 779 2.050 10000.000 0.000 -0.505
33 99.00 1500.00 234 738 2.050 10000.000 0.000 -0.505
34 102.00 1500.00 266 706 2.050 10000.000 0.000 -0.505
35 105.00 1500.00 250 663 2.050 10000.000 0.000 -0.505
36 108.00 1500.00 264 701 2.050 10000.000 0.000 -0.505
37 111.00 1500.00 279 750 2.050 10000.000 0.000 -0.505
38 114.00 1500.00 263 745 2.050 10000.000 0.000 -0.505
39 117.00 1500.00 237 735 2.050 10000.000 0.000 -0.505
40 120.00 1500.00 270 739 2.050 10000.000 0.000 -0.505
41 123.00 1500.00 249 687 2.050 10000.000 0.000 -0.505
42 126.00 1500.00 226 720 2.050 10000.000 0.000 -0.505
43 129.00 1500.00 260 765 2.050 10000.000 0.000 -0.505
44 132.00 1500.00 225 725 2.050 10000.000 0.000 -0.505
45 135.00 1500.00 270 690 2.050 10000.000 0.000 -0.505
46 138.00 1500.00 261 715 2.050 10000.000 0.000 -0.505
47 141.00 1500.00 254 700 2.050 10000.000 0.000 -0.505
48 144.00 1500.00 284 683 2.050 10000.000 0.000 -0.505
49 147.00 1500.00 307 735 2.050 10000.000 0.000 -0.505
50 150.00 1500.00 268 720 2.050 10000.000 0.000 -0.505
51 153.00 1500.00 272 736 2.050 10000.000 0.000 -0.505
52 156.00 1500.00 260 730 2.050 10000.000 0.000 -0.505
53 159.00 1500.00 244 728 2.050 10000.000 0.000 -0.505
54 162.00 1500.00 259 750 2.050 10000.000 0.000 -0.505
55 165.00 1500.00 250 714 2.050 10000.000 0.000 -0.505
56 168.00 1500.00 247 760 2.050 10000.000 0.000 -0.505
57 171.00 1500.00 254 668 2.050 10000.000 0.000 -0.505
58 174.00 1500.00 258 773 2.050 10000.000 0.000 -0.505
59 177.00 1500.00 281 710 2.050 10000.000 0.000 -0.505
60 180.00 1500.00 285 719 2.050 10000.000 0.000 -0.505
61 183.00 1500.00 265 684 2.050 10000.000 0.000 -0.505
62 186.00 1500.00 241 691 2.050 10000.000 0.000 -0.505
63 189.00 1500.00 238 738 2.050 10000.000 0.000 -0.505
64 192.00 1500.00 277 709 2.050 10000.000 0.000 -0.505
65 195.00 1500.00 260 740 2.050 10000.000 0.000 -0.505
66 198.00 1500.00 267 747 2.050 10000.000 0.000 -0.505
67 201.00 1500.00 290 745 2.050 10000.000 0.000 -0.505
68 204.00 1500.00 255 707 2.050 10000.000 0.000 -0.505
69 207.00 1500.00 275 725 2.050 10000.000 0.000 -0.505
70 210.00 1500.00 258 693 2.050 10000.000 0.000 -0.505
71 213.00 1500.00 247 722 2.050 10000.000 0.000 -0.505
72 216.00 1500.00 268 768 2.050 10000.000 0.000 -0.505
73 219.00 1500.00 271 729 2.050 10000.000 0.000 -0.505
74 222.00 1500.00 255 785 2.050 10000.000 0.000 -0.505
75 225.00 1500.00 241 693 2.050 10000.000 0.000 -0.505
76 228.00 1500.00 242 759 2.050 10000.000 0.000 -0.505
77 231.00 1500.00 264 735 2.050 10000.000 0.000 -0.505
78 234.00 1500.00 271 753 2.050 10000.000 0.000 -0.505
79 237.00 1500.00 265 719 2.050 10000.000 0.000 -0.505
80 240.00 1500.00 257 732 2.050 10000.000 0.000 -0.505
81 243.00 1500.00 283 714 2.050 10000.000 0.000 -0.505
82 246.00 1500.00 265 751 2.050 10000.000 0.000 -0.505
83 249.00 1500.00 279 681 2.050 10000.000 0.000 -0.505
84 252.00 1500.00 274 705 2.050 10000.000 0.000 -0.505
85 255.00 1500.00 243 707 2.050 10000.000 0.000 -0.505
86 258.00 1500.00 250 683 2.050 10000.000 0.000 -0.505
87 261.00 1500.00 266 719 2.050 10000.000 0.000 -0.505
88 264.00 1500.00 258 713 2.050 10000.000 0.000 -0.505
89 267.00 1500.00 257 709 2.050 10000.000 0.000 -0.505
90 270.00 1500.00 282 727 2.050 10000.000 0.000 -0.505
91 273.00 1500.00 245 765 2.050 10000.000 0.000 -0.505
92 276.00 1500.00 256 723 2.050 10000.000 0.000 -0.505
93 279.00 1500.00 262 687 2.050 10000.000 0.000 -0.505
94 282.00 1500.00 272 757 2.050 10000.000 0.000 -0.505
95 285.00 1500.00 266 725 2.050 10000.000 0.000 -0.505
96 288.00 1500.00 222 750 2.050 10000.000 0.000 -0.505
97 291.00 1500.00 273 712 2.050 10000.000 0.000 -0.505
98 294.00 1500.00 285 693 2.050 10000.000 0.000 -0.505
99 297.00 1500.00 256 708 2.050 10000.000 0.000 -0.505
100 300.00 1500.00 288 714 2.050 10000.000 0.000 -0.505
101 303.00 1500.00 251 726 2.050 10000.000 0.000 -0.505
102 306.00 1500.00 275 722 2.050 10000.000 0.000 -0.505
103 309.00 1500.00 245 720 2.050 10000.000 0.000 -0.505
104 312.00 1500.00 276 706 2.050 10000.000 0.000 -0.505
105 315.00 1500.00 267 703 2.050 10000.000 0.000 -0.505
106 318.00 1500.00 246 734 2.050 10000.000 0.000 -0.505
107 321.00 1500.00 268 690 2.050 10000.000 0.000 -0.505
108 324.00 1500.00 281 781 2.050 10000.000 0.000 -0.505
109 327.00 1500.00 270 721 2.050 10000.000 0.000 -0.505
110 330.00 1500.00 282 745 2.050 10000.000 0.000 -0.505
111 333.00 1500.00 270 724 2.050 10000.000 0.000 -0.505
112 336.00 1500.00 263 762 2.050 10000.000 0.000 -0.505
113 339.00 1500.00 238 730 2.050 10000.000 0.000 -0.505
114 342.00 1500.00 269 763 2.050 10000.000 0.000 -0.505
115 345.00 1500.00 238 766 2.050 10000.000 0.000 -0.505
116 348.00 1500.00 249 741 2.050 10000.000 0.000 -0.505
117 351.00 1500.00 284 715 2.050 10000.000 0.000 -0.505
118 354.00 1500.00 252 699 2.050 10000.000 0.000 -0.505
119 357.00 1500.00 269 676 2.050 10000.000 0.000 -0.505
120 360.00 1500.00 279 742 2.050 10000.000 0.000 -0.505
121 363.00 1500.00 256 728 2.050 10000.000 0.000 -0.505
122 366.00 1500.00 226 762 2.050 10000.000 0.000 -0.505
123 369.00 1500.00 247 699 2.050 10000.000 0.000 -0.505
124 372.00 1500.00 275 764 2.050 10000.000 0.000 -0.505
125 375.00 1500.00 261 727 2.050 10000.000 0.000 -0.505
126 378.00 1500.00 266 826 2.050 10000.000 0.000 -0.505
127 381.00 1500.00 260 765 2.050 10000.000 0.000 -0.505
128 384.00 1500.00 263 753 2.050 10000.000 0.000 -0.505
129 387.00 1500.00 239 747 2.050 10000.000 0.000 -0.505
130 390.00 1500.00 252 755 2.050 10000.000 0.000 -0.505
131 393.00 1500.00 242 707 2.050 10000.000 0.000 -0.505
132 396.00 1500.00 261 750 2.050 10000.000 0.000 -0.505
133 399.00 1500.00 250 709 2.050 10000.000 0.000 -0.505
134 402.00 1500.00 244 682 2.050 10000.000 0.000 -0.505
