# BinNR microsec tot-time (s)  O-Beam AUX Ampl(V) f(Hz) phase(deg) chi(pos)
0 0.00 1500.00 149 494 2.050 10000.000 0.000 -0.330
1 3.00 1500.00 325 978 2.050 10000.000 0.000 -0.330
2 6.00 1500.00 331 1007 2.050 10000.000 0.000 -0.330
3 9.00 1500.00 321 982 2.050 10000.000 0.000 -0.330
4 12.00 1500.00 310 1015 2.050 10000.000 0.000 -0.330
5 15.00 1500.00 293 1007 2.050 10000.000 0.000 -0.330
6 18.00 1500.00 329 991 2.050 10000.000 0.000 -0.330
7 21.00 1500.00 316 957 2.050 10000.000 0.000 -0.330
8 24.00 1500.00 329 1043 2.050 10000.000 0.000 -0.330
9 27.00 1500.00 324 981 2.050 10000.000 0.000 -0.330
10 30.00 1500.00 307 992 2.050 10000.000 0.000 -0.330
11 33.00 1500.00 305 988 2.050 10000.000 0.000 -0.330
12 36.00 1500.00 303 1032 2.050 10000.000 0.000 -0.330
13 39.00 1500.00 342 997 2.050 10000.000 0.000 -0.330
14 42.00 1500.00 333 1024 2.050 10000.000 0.000 -0.330
15 45.00 1500.00 310 1032 2.050 10000.000 0.000 -0.330
16 48.00 1500.00 318 1030 2.050 10000.000 0.000 -0.330
17 51.00 1500.00 319 875 2.050 10000.000 0.000 -0.330
18 54.00 1500.00 329 1043 2.050 10000.000 0.000 -0.330
19 57.00 1500.00 294 936 2.050 10000.000 0.000 -0.330
20 60.00 1500.00 304 954 2.050 10000.000 0.000 -0.330
21 63.00 1500.00 315 1014 2.050 10000.000 0.000 -0.330
22 66.00 1500.00 310 1011 2.050 10000.000 0.000 -0.330
23 69.00 1500.00 328 947 2.050 10000.000 0.000 -0.330
24 72.00 1500.00 374 966 2.050 10000.000 0.000 -0.330
25 75.00 1500.00 327 1001 2.050 10000.000 0.000 -0.330
26 78.00 1500.00 294 940 2.050 10000.000 0.000 -0.330
27 81.00 1500.00 325 1043 2.050 10000.000 0.000 -0.330
28 84.00 1500.00 306 966 2.050 10000.000 0.000 -0.330
29 87.00 1500.00 315 983 2.050 10000.000 0.000 -0.330
30 90.00 1500.00 307 918 2.050 10000.000 0.000 -0.330
31 93.00 1500.00 346 989 2.050 10000.000 0.000 -0.330
32 96.00 1500.00 358 968 2.050 10000.000 0.000 -0.330
33 99.00 1500.00 324 998 2.050 10000.000 0.000 -0.330
34 102.00 1500.00 341 995 2.050 10000.000 0.000 -0.330
35 105.00 1500.00 336 972 2.050 10000.000 0.000 -0.330
36 108.00 1500.00 331 955 2.050 10000.000 0.000 -0.330
37 111.00 1500.00 300 1033 2.050 10000.000 0.000 -0.330
38 114.00 1500.00 304 1064 2.050 10000.000 0.000 -0.330
39 117.00 1500.00 293 967 2.050 10000.000 0.000 -0.330
40 120.00 1500.00 337 1032 2.050 10000.000 0.000 -0.330
41 123.00 1500.00 322 983 2.050 10000.000 0.000 -0.330
42 126.00 1500.00 305 1003 2.050 10000.000 0.000 -0.330
43 129.00 1500.00 334 958 2.050 10000.000 0.000 -0.330
44 132.00 1500.00 363 1009 2.050 10000.000 0.000 -0.330
45 135.00 1500.00 361 1030 2.050 10000.000 0.000 -0.330
46 138.00 1500.00 326 998 2.050 10000.000 0.000 -0.330
47 141.00 1500.00 314 998 2.050 10000.000 0.000 -0.330
48 144.00 1500.00 299 997 2.050 10000.000 0.000 -0.330
49 147.00 1500.00 303 985 2.050 10000.000 0.000 -0.330
50 150.00 1500.00 321 982 2.050 10000.000 0.000 -0.330
51 153.00 1500.00 336 986 2.050 10000.000 0.000 -0.330
52 156.00 1500.00 337 999 2.050 10000.000 0.000 -0.330
53 159.00 1500.00 302 1021 2.050 10000.000 0.000 -0.330
54 162.00 1500.00 307 1018 2.050 10000.000 0.000 -0.330
55 165.00 1500.00 353 986 2.050 10000.000 0.000 -0.330
56 168.00 1500.00 336 992 2.050 10000.000 0.000 -0.330
57 171.00 1500.00 320 951 2.050 10000.000 0.000 -0.330
58 174.00 1500.00 294 1006 2.050 10000.000 0.000 -0.330
59 177.00 1500.00 283 1007 2.050 10000.000 0.000 -0.330
60 180.00 1500.00 331 957 2.050 10000.000 0.000 -0.330
61 183.00 1500.00 311 963 2.050 10000.000 0.000 -0.330
62 186.00 1500.00 318 984 2.050 10000.000 0.000 -0.330
63 189.00 1500.00 353 958 2.050 10000.000 0.000 -0.330
64 192.00 1500.00 310 985 2.050 10000.000 0.000 -0.330
65 195.00 1500.00 330 999 2.050 10000.000 0.000 -0.330
66 198.00 1500.00 327 966 2.050 10000.000 0.000 -0.330
67 201.00 1500.00 315 969 2.050 10000.000 0.000 -0.330
68 204.00 1500.00 343 982 2.050 10000.000 0.000 -0.330
69 207.00 1500.00 301 1036 2.050 10000.000 0.000 -0.330
70 210.00 1500.00 325 960 2.050 10000.000 0.000 -0.330
71 213.00 1500.00 311 938 2.050 10000.000 0.000 -0.330
72 216.00 1500.00 325 989 2.050 10000.000 0.000 -0.330
73 219.00 1500.00 292 972 2.050 10000.000 0.000 -0.330
74 222.00 1500.00 326 1043 2.050 10000.000 0.000 -0.330
75 225.00 1500.00 339 991 2.050 10000.000 0.000 -0.330
76 228.00 1500.00 317 1003 2.050 10000.000 0.000 -0.330
77 231.00 1500.00 310 1023 2.050 10000.000 0.000 -0.330
78 234.00 1500.00 304 984 2.050 10000.000 0.000 -0.330
79 237.00 1500.00 304 968 2.050 10000.000 0.000 -0.330
80 240.00 1500.00 295 1060 2.050 10000.000 0.000 -0.330
81 243.00 1500.00 326 961 2.050 10000.000 0.000 -0.330
82 246.00 1500.00 333 1030 2.050 10000.000 0.000 -0.330
83 249.00 1500.00 334 939 2.050 10000.000 0.000 -0.330
84 252.00 1500.00 332 972 2.050 10000.000 0.000 -0.330
85 255.00 1500.00 317 1027 2.050 10000.000 0.000 -0.330
86 258.00 1500.00 322 985 2.050 10000.000 0.000 -0.330
87 261.00 1500.00 323 1005 2.050 10000.000 0.000 -0.330
88 264.00 1500.00 349 974 2.050 10000.000 0.000 -0.330
89 267.00 1500.00 308 1003 2.050 10000.000 0.000 -0.330
90 270.00 1500.00 304 991 2.050 10000.000 0.000 -0.330
91 273.00 1500.00 344 966 2.050 10000.000 0.000 -0.330
92 276.00 1500.00 325 1005 2.050 10000.000 0.000 -0.330
93 279.00 1500.00 335 968 2.050 10000.000 0.000 -0.330
94 282.00 1500.00 345 986 2.050 10000.000 0.000 -0.330
95 285.00 1500.00 315 1044 2.050 10000.000 0.000 -0.330
96 288.00 1500.00 321 1048 2.050 10000.000 0.000 -0.330
97 291.00 1500.00 301 966 2.050 10000.000 0.000 -0.330
98 294.00 1500.00 329 987 2.050 10000.000 0.000 -0.330
99 297.00 1500.00 285 949 2.050 10000.000 0.000 -0.330
100 300.00 1500.00 298 1014 2.050 10000.000 0.000 -0.330
101 303.00 1500.00 320 1025 2.050 10000.000 0.000 -0.330
102 306.00 1500.00 355 999 2.050 10000.000 0.000 -0.330
103 309.00 1500.00 301 1000 2.050 10000.000 0.000 -0.330
104 312.00 1500.00 296 967 2.050 10000.000 0.000 -0.330
105 315.00 1500.00 286 1002 2.050 10000.000 0.000 -0.330
106 318.00 1500.00 327 1016 2.050 10000.000 0.000 -0.330
107 321.00 1500.00 317 932 2.050 10000.000 0.000 -0.330
108 324.00 1500.00 328 984 2.050 10000.000 0.000 -0.330
109 327.00 1500.00 358 1005 2.050 10000.000 0.000 -0.330
110 330.00 1500.00 278 958 2.050 10000.000 0.000 -0.330
111 333.00 1500.00 304 959 2.050 10000.000 0.000 -0.330
112 336.00 1500.00 354 936 2.050 10000.000 0.000 -0.330
113 339.00 1500.00 332 1014 2.050 10000.000 0.000 -0.330
114 342.00 1500.00 292 986 2.050 10000.000 0.000 -0.330
115 345.00 1500.00 337 982 2.050 10000.000 0.000 -0.330
116 348.00 1500.00 353 1026 2.050 10000.000 0.000 -0.330
117 351.00 1500.00 338 974 2.050 10000.000 0.000 -0.330
118 354.00 1500.00 324 989 2.050 10000.000 0.000 -0.330
119 357.00 1500.00 316 944 2.050 10000.000 0.000 -0.330
120 360.00 1500.00 320 1021 2.050 10000.000 0.000 -0.330
121 363.00 1500.00 292 924 2.050 10000.000 0.000 -0.330
122 366.00 1500.00 311 997 2.050 10000.000 0.000 -0.330
123 369.00 1500.00 319 957 2.050 10000.000 0.000 -0.330
124 372.00 1500.00 330 1025 2.050 10000.000 0.000 -0.330
125 375.00 1500.00 321 940 2.050 10000.000 0.000 -0.330
126 378.00 1500.00 329 1026 2.050 10000.000 0.000 -0.330
127 381.00 1500.00 330 954 2.050 10000.000 0.000 -0.330
128 384.00 1500.00 315 1019 2.050 10000.000 0.000 -0.330
129 387.00 1500.00 301 979 2.050 10000.000 0.000 -0.330
130 390.00 1500.00 321 1017 2.050 10000.000 0.000 -0.330
131 393.00 1500.00 343 993 2.050 10000.000 0.000 -0.330
132 396.00 1500.00 335 1026 2.050 10000.000 0.000 -0.330
133 399.00 1500.00 279 984 2.050 10000.000 0.000 -0.330
134 402.00 1500.00 328 1055 2.050 10000.000 0.000 -0.330
