# BinNR microsec tot-time (s)  O-Beam AUX Ampl(V) f(Hz) phase(deg) chi(pos)
0 0.00 1200.00 149 291 2.000 10000.000 0.000 -1.505
1 3.00 1200.00 310 602 2.000 10000.000 0.000 -1.505
2 6.00 1200.00 285 535 2.000 10000.000 0.000 -1.505
3 9.00 1200.00 280 500 2.000 10000.000 0.000 -1.505
4 12.00 1200.00 249 498 2.000 10000.000 0.000 -1.505
5 15.00 1200.00 228 506 2.000 10000.000 0.000 -1.505
6 18.00 1200.00 240 454 2.000 10000.000 0.000 -1.505
7 21.00 1200.00 259 462 2.000 10000.000 0.000 -1.505
8 24.00 1200.00 268 520 2.000 10000.000 0.000 -1.505
9 27.00 1200.00 273 558 2.000 10000.000 0.000 -1.505
10 30.00 1200.00 262 578 2.000 10000.000 0.000 -1.505
11 33.00 1200.00 297 631 2.000 10000.000 0.000 -1.505
12 36.00 1200.00 305 747 2.000 10000.000 0.000 -1.505
13 39.00 1200.00 331 836 2.000 10000.000 0.000 -1.505
14 42.00 1200.00 354 855 2.000 10000.000 0.000 -1.505
15 45.00 1200.00 328 987 2.000 10000.000 0.000 -1.505
16 48.00 1200.00 354 1111 2.000 10000.000 0.000 -1.505
17 51.00 1200.00 415 1052 2.000 10000.000 0.000 -1.505
18 54.00 1200.00 389 1277 2.000 10000.000 0.000 -1.505
19 57.00 1200.00 404 1210 2.000 10000.000 0.000 -1.505
20 60.00 1200.00 404 1279 2.000 10000.000 0.000 -1.505
21 63.00 1200.00 470 1278 2.000 10000.000 0.000 -1.505
22 66.00 1200.00 428 1293 2.000 10000.000 0.000 -1.505
23 69.00 1200.00 407 1289 2.000 10000.000 0.000 -1.505
24 72.00 1200.00 426 1286 2.000 10000.000 0.000 -1.505
25 75.00 1200.00 392 1247 2.000 10000.000 0.000 -1.505
26 78.00 1200.00 414 1250 2.000 10000.000 0.000 -1.505
27 81.00 1200.00 380 1204 2.000 10000.000 0.000 -1.505
28 84.00 1200.00 402 1180 2.000 10000.000 0.000 -1.505
29 87.00 1200.00 391 1059 2.000 10000.000 0.000 -1.505
30 90.00 1200.00 432 972 2.000 10000.000 0.000 -1.505
31 93.00 1200.00 374 906 2.000 10000.000 0.000 -1.505
32 96.00 1200.00 317 869 2.000 10000.000 0.000 -1.505
33 99.00 1200.00 318 726 2.000 10000.000 0.000 -1.505
34 102.00 1200.00 310 630 2.000 10000.000 0.000 -1.505
35 105.00 1200.00 306 552 2.000 10000.000 0.000 -1.505
36 108.00 1200.00 289 489 2.000 10000.000 0.000 -1.505
37 111.00 1200.00 264 468 2.000 10000.000 0.000 -1.505
38 114.00 1200.00 257 450 2.000 10000.000 0.000 -1.505
39 117.00 1200.00 256 445 2.000 10000.000 0.000 -1.505
40 120.00 1200.00 239 457 2.000 10000.000 0.000 -1.505
41 123.00 1200.00 242 464 2.000 10000.000 0.000 -1.505
42 126.00 1200.00 241 463 2.000 10000.000 0.000 -1.505
43 129.00 1200.00 289 543 2.000 10000.000 0.000 -1.505
44 132.00 1200.00 282 614 2.000 10000.000 0.000 -1.505
45 135.00 1200.00 298 694 2.000 10000.000 0.000 -1.505
46 138.00 1200.00 306 801 2.000 10000.000 0.000 -1.505
47 141.00 1200.00 362 827 2.000 10000.000 0.000 -1.505
48 144.00 1200.00 393 908 2.000 10000.000 0.000 -1.505
49 147.00 1200.00 383 1047 2.000 10000.000 0.000 -1.505
50 150.00 1200.00 366 1109 2.000 10000.000 0.000 -1.505
51 153.00 1200.00 464 1124 2.000 10000.000 0.000 -1.505
52 156.00 1200.00 442 1176 2.000 10000.000 0.000 -1.505
53 159.00 1200.00 406 1249 2.000 10000.000 0.000 -1.505
54 162.00 1200.00 425 1255 2.000 10000.000 0.000 -1.505
55 165.00 1200.00 419 1219 2.000 10000.000 0.000 -1.505
56 168.00 1200.00 442 1270 2.000 10000.000 0.000 -1.505
57 171.00 1200.00 444 1188 2.000 10000.000 0.000 -1.505
58 174.00 1200.00 431 1253 2.000 10000.000 0.000 -1.505
59 177.00 1200.00 419 1214 2.000 10000.000 0.000 -1.505
60 180.00 1200.00 410 1133 2.000 10000.000 0.000 -1.505
61 183.00 1200.00 418 1147 2.000 10000.000 0.000 -1.505
62 186.00 1200.00 404 1078 2.000 10000.000 0.000 -1.505
63 189.00 1200.00 346 1047 2.000 10000.000 0.000 -1.505
64 192.00 1200.00 375 984 2.000 10000.000 0.000 -1.505
65 195.00 1200.00 348 884 2.000 10000.000 0.000 -1.505
66 198.00 1200.00 328 744 2.000 10000.000 0.000 -1.505
67 201.00 1200.00 277 667 2.000 10000.000 0.000 -1.505
68 204.00 1200.00 319 566 2.000 10000.000 0.000 -1.505
69 207.00 1200.00 274 509 2.000 10000.000 0.000 -1.505
70 210.00 1200.00 274 503 2.000 10000.000 0.000 -1.505
71 213.00 1200.00 257 429 2.000 10000.000 0.000 -1.505
72 216.00 1200.00 248 485 2.000 10000.000 0.000 -1.505
73 219.00 1200.00 258 438 2.000 10000.000 0.000 -1.505
74 222.00 1200.00 246 473 2.000 10000.000 0.000 -1.505
75 225.00 1200.00 271 488 2.000 10000.000 0.000 -1.505
76 228.00 1200.00 259 605 2.000 10000.000 0.000 -1.505
77 231.00 1200.00 251 586 2.000 10000.000 0.000 -1.505
78 234.00 1200.00 305 646 2.000 10000.000 0.000 -1.505
79 237.00 1200.00 310 681 2.000 10000.000 0.000 -1.505
80 240.00 1200.00 321 846 2.000 10000.000 0.000 -1.505
81 243.00 1200.00 344 910 2.000 10000.000 0.000 -1.505
82 246.00 1200.00 340 998 2.000 10000.000 0.000 -1.505
83 249.00 1200.00 403 1110 2.000 10000.000 0.000 -1.505
84 252.00 1200.00 383 1200 2.000 10000.000 0.000 -1.505
85 255.00 1200.00 397 1228 2.000 10000.000 0.000 -1.505
86 258.00 1200.00 410 1237 2.000 10000.000 0.000 -1.505
87 261.00 1200.00 411 1206 2.000 10000.000 0.000 -1.505
88 264.00 1200.00 428 1265 2.000 10000.000 0.000 -1.505
89 267.00 1200.00 446 1183 2.000 10000.000 0.000 -1.505
90 270.00 1200.00 466 1286 2.000 10000.000 0.000 -1.505
91 273.00 1200.00 395 1227 2.000 10000.000 0.000 -1.505
92 276.00 1200.00 429 1237 2.000 10000.000 0.000 -1.505
93 279.00 1200.00 415 1254 2.000 10000.000 0.000 -1.505
94 282.00 1200.00 402 1230 2.000 10000.000 0.000 -1.505
95 285.00 1200.00 385 1069 2.000 10000.000 0.000 -1.505
96 288.00 1200.00 408 1091 2.000 10000.000 0.000 -1.505
97 291.00 1200.00 343 933 2.000 10000.000 0.000 -1.505
98 294.00 1200.00 354 885 2.000 10000.000 0.000 -1.505
99 297.00 1200.00 356 739 2.000 10000.000 0.000 -1.505
100 300.00 1200.00 300 627 2.000 10000.000 0.000 -1.505
