# BinNR microsec tot-time (s)  O-Beam AUX Ampl(V) f(Hz) phase(deg) chi(pos)
0 0.00 1200.01 168 254 2.000 10000.000 0.000 0.703
1 3.00 1200.01 259 501 2.000 10000.000 0.000 0.703
2 6.00 1200.01 284 486 2.000 10000.000 0.000 0.703
3 9.00 1200.01 298 459 2.000 10000.000 0.000 0.703
4 12.00 1200.01 257 422 2.000 10000.000 0.000 0.703
5 15.00 1200.01 264 402 2.000 10000.000 0.000 0.703
6 18.00 1200.01 247 438 2.000 10000.000 0.000 0.703
7 21.00 1200.01 255 385 2.000 10000.000 0.000 0.703
8 24.00 1200.01 216 454 2.000 10000.000 0.000 0.703
9 27.00 1200.01 241 446 2.000 10000.000 0.000 0.703
10 30.00 1200.01 245 514 2.000 10000.000 0.000 0.703
11 33.00 1200.01 264 574 2.000 10000.000 0.000 0.703
12 36.00 1200.01 304 620 2.000 10000.000 0.000 0.703
13 39.00 1200.01 273 668 2.000 10000.000 0.000 0.703
14 42.00 1200.01 327 729 2.000 10000.000 0.000 0.703
15 45.00 1200.01 301 777 2.000 10000.000 0.000 0.703
16 48.00 1200.01 349 936 2.000 10000.000 0.000 0.703
17 51.00 1200.01 355 893 2.000 10000.000 0.000 0.703
18 54.00 1200.01 386 943 2.000 10000.000 0.000 0.703
19 57.00 1200.01 356 993 2.000 10000.000 0.000 0.703
20 60.00 1200.01 403 1070 2.000 10000.000 0.000 0.703
21 63.00 1200.01 375 1086 2.000 10000.000 0.000 0.703
22 66.00 1200.01 391 1110 2.000 10000.000 0.000 0.703
23 69.00 1200.01 406 1021 2.000 10000.000 0.000 0.703
24 72.00 1200.01 403 1086 2.000 10000.000 0.000 0.703
25 75.00 1200.01 368 1069 2.000 10000.000 0.000 0.703
26 78.00 1200.01 371 1079 2.000 10000.000 0.000 0.703
27 81.00 1200.01 386 1000 2.000 10000.000 0.000 0.703
28 84.00 1200.01 405 947 2.000 10000.000 0.000 0.703
29 87.00 1200.01 357 869 2.000 10000.000 0.000 0.703
30 90.00 1200.01 385 846 2.000 10000.000 0.000 0.703
31 93.00 1200.01 334 725 2.000 10000.000 0.000 0.703
32 96.00 1200.01 326 664 2.000 10000.000 0.000 0.703
33 99.00 1200.01 315 571 2.000 10000.000 0.000 0.703
34 102.00 1200.01 275 541 2.000 10000.000 0.000 0.703
35 105.00 1200.01 276 524 2.000 10000.000 0.000 0.703
36 108.00 1200.01 263 442 2.000 10000.000 0.000 0.703
37 111.00 1200.01 265 437 2.000 10000.000 0.000 0.703
38 114.00 1200.01 257 417 2.000 10000.000 0.000 0.703
39 117.00 1200.01 235 376 2.000 10000.000 0.000 0.703
40 120.00 1200.01 276 434 2.000 10000.000 0.000 0.703
41 123.00 1200.01 226 441 2.000 10000.000 0.000 0.703
42 126.00 1200.01 243 463 2.000 10000.000 0.000 0.703
43 129.00 1200.01 235 480 2.000 10000.000 0.000 0.703
44 132.00 1200.01 271 454 2.000 10000.000 0.000 0.703
45 135.00 1200.01 280 535 2.000 10000.000 0.000 0.703
46 138.00 1200.01 275 684 2.000 10000.000 0.000 0.703
47 141.00 1200.01 297 701 2.000 10000.000 0.000 0.703
48 144.00 1200.01 335 843 2.000 10000.000 0.000 0.703
49 147.00 1200.01 336 897 2.000 10000.000 0.000 0.703
50 150.00 1200.01 327 978 2.000 10000.000 0.000 0.703
51 153.00 1200.01 366 892 2.000 10000.000 0.000 0.703
52 156.00 1200.01 365 1064 2.000 10000.000 0.000 0.703
53 159.00 1200.01 381 1037 2.000 10000.000 0.000 0.703
54 162.00 1200.01 375 1061 2.000 10000.000 0.000 0.703
55 165.00 1200.01 394 1062 2.000 10000.000 0.000 0.703
56 168.00 1200.01 358 1092 2.000 10000.000 0.000 0.703
57 171.00 1200.01 350 1062 2.000 10000.000 0.000 0.703
58 174.00 1200.01 375 1011 2.000 10000.000 0.000 0.703
59 177.00 1200.01 383 1073 2.000 10000.000 0.000 0.703
60 180.00 1200.01 372 1026 2.000 10000.000 0.000 0.703
61 183.00 1200.01 363 961 2.000 10000.000 0.000 0.703
62 186.00 1200.01 379 944 2.000 10000.000 0.000 0.703
63 189.00 1200.01 356 860 2.000 10000.000 0.000 0.703
64 192.00 1200.01 321 758 2.000 10000.000 0.000 0.703
65 195.00 1200.01 360 676 2.000 10000.000 0.000 0.703
66 198.00 1200.01 310 620 2.000 10000.000 0.000 0.703
67 201.00 1200.01 310 533 2.000 10000.000 0.000 0.703
68 204.00 1200.01 286 535 2.000 10000.000 0.000 0.703
69 207.00 1200.01 270 490 2.000 10000.000 0.000 0.703
70 210.00 1200.01 272 442 2.000 10000.000 0.000 0.703
71 213.00 1200.01 272 407 2.000 10000.000 0.000 0.703
72 216.00 1200.01 233 390 2.000 10000.000 0.000 0.703
73 219.00 1200.01 248 402 2.000 10000.000 0.000 0.703
74 222.00 1200.01 243 429 2.000 10000.000 0.000 0.703
75 225.00 1200.01 227 450 2.000 10000.000 0.000 0.703
76 228.00 1200.01 228 454 2.000 10000.000 0.000 0.703
77 231.00 1200.01 256 500 2.000 10000.000 0.000 0.703
78 234.00 1200.01 265 559 2.000 10000.000 0.000 0.703
79 237.00 1200.01 259 610 2.000 10000.000 0.000 0.703
80 240.00 1200.01 258 734 2.000 10000.000 0.000 0.703
81 243.00 1200.01 314 782 2.000 10000.000 0.000 0.703
82 246.00 1200.01 325 846 2.000 10000.000 0.000 0.703
83 249.00 1200.01 333 834 2.000 10000.000 0.000 0.703
84 252.00 1200.01 342 903 2.000 10000.000 0.000 0.703
85 255.00 1200.01 384 1011 2.000 10000.000 0.000 0.703
86 258.00 1200.01 397 1027 2.000 10000.000 0.000 0.703
87 261.00 1200.01 416 1042 2.000 10000.000 0.000 0.703
88 264.00 1200.01 406 1095 2.000 10000.000 0.000 0.703
89 267.00 1200.01 427 1092 2.000 10000.000 0.000 0.703
90 270.00 1200.01 392 1070 2.000 10000.000 0.000 0.703
91 273.00 1200.01 429 1033 2.000 10000.000 0.000 0.703
92 276.00 1200.01 365 1070 2.000 10000.000 0.000 0.703
93 279.00 1200.01 402 972 2.000 10000.000 0.000 0.703
94 282.00 1200.01 341 946 2.000 10000.000 0.000 0.703
95 285.00 1200.01 360 922 2.000 10000.000 0.000 0.703
96 288.00 1200.01 370 842 2.000 10000.000 0.000 0.703
97 291.00 1200.01 356 771 2.000 10000.000 0.000 0.703
98 294.00 1200.01 307 724 2.000 10000.000 0.000 0.703
99 297.00 1200.01 292 611 2.000 10000.000 0.000 0.703
100 300.00 1200.01 244 467 2.000 10000.000 0.000 0.703
