# BinNR microsec tot-time (s)  O-Beam AUX Ampl(V) f(Hz) phase(deg) chi(pos)
0 0.00 1200.01 95 112 2.000 10000.000 0.000 1.110
1 3.00 1200.01 199 226 2.000 10000.000 0.000 1.110
2 6.00 1200.01 179 257 2.000 10000.000 0.000 1.110
3 9.00 1200.01 182 263 2.000 10000.000 0.000 1.110
4 12.00 1200.01 183 288 2.000 10000.000 0.000 1.110
5 15.00 1200.01 175 306 2.000 10000.000 0.000 1.110
6 18.00 1200.01 166 282 2.000 10000.000 0.000 1.110
7 21.00 1200.01 170 269 2.000 10000.000 0.000 1.110
8 24.00 1200.01 169 277 2.000 10000.000 0.000 1.110
9 27.00 1200.01 133 278 2.000 10000.000 0.000 1.110
10 30.00 1200.01 148 248 2.000 10000.000 0.000 1.110
11 33.00 1200.01 132 230 2.000 10000.000 0.000 1.110
12 36.00 1200.01 182 251 2.000 10000.000 0.000 1.110
13 39.00 1200.01 176 271 2.000 10000.000 0.000 1.110
14 42.00 1200.01 168 266 2.000 10000.000 0.000 1.110
15 45.00 1200.01 189 292 2.000 10000.000 0.000 1.110
16 48.00 1200.01 216 371 2.000 10000.000 0.000 1.110
17 51.00 1200.01 204 406 2.000 10000.000 0.000 1.110
18 54.00 1200.01 265 474 2.000 10000.000 0.000 1.110
19 57.00 1200.01 257 478 2.000 10000.000 0.000 1.110
20 60.00 1200.01 238 555 2.000 10000.000 0.000 1.110
21 63.00 1200.01 252 590 2.000 10000.000 0.000 1.110
22 66.00 1200.01 263 613 2.000 10000.000 0.000 1.110
23 69.00 1200.01 279 602 2.000 10000.000 0.000 1.110
24 72.00 1200.01 264 610 2.000 10000.000 0.000 1.110
25 75.00 1200.01 249 575 2.000 10000.000 0.000 1.110
26 78.00 1200.01 253 544 2.000 10000.000 0.000 1.110
27 81.00 1200.01 259 469 2.000 10000.000 0.000 1.110
28 84.00 1200.01 235 413 2.000 10000.000 0.000 1.110
29 87.00 1200.01 232 344 2.000 10000.000 0.000 1.110
30 90.00 1200.01 226 313 2.000 10000.000 0.000 1.110
31 93.00 1200.01 220 253 2.000 10000.000 0.000 1.110
32 96.00 1200.01 182 241 2.000 10000.000 0.000 1.110
33 99.00 1200.01 175 195 2.000 10000.000 0.000 1.110
34 102.00 1200.01 171 235 2.000 10000.000 0.000 1.110
35 105.00 1200.01 170 250 2.000 10000.000 0.000 1.110
36 108.00 1200.01 156 249 2.000 10000.000 0.000 1.110
37 111.00 1200.01 163 279 2.000 10000.000 0.000 1.110
38 114.00 1200.01 197 308 2.000 10000.000 0.000 1.110
39 117.00 1200.01 170 288 2.000 10000.000 0.000 1.110
40 120.00 1200.01 170 301 2.000 10000.000 0.000 1.110
41 123.00 1200.01 150 293 2.000 10000.000 0.000 1.110
42 126.00 1200.01 178 322 2.000 10000.000 0.000 1.110
43 129.00 1200.01 161 242 2.000 10000.000 0.000 1.110
44 132.00 1200.01 184 252 2.000 10000.000 0.000 1.110
45 135.00 1200.01 172 236 2.000 10000.000 0.000 1.110
46 138.00 1200.01 172 249 2.000 10000.000 0.000 1.110
47 141.00 1200.01 175 253 2.000 10000.000 0.000 1.110
48 144.00 1200.01 188 280 2.000 10000.000 0.000 1.110
49 147.00 1200.01 178 314 2.000 10000.000 0.000 1.110
50 150.00 1200.01 203 389 2.000 10000.000 0.000 1.110
51 153.00 1200.01 211 473 2.000 10000.000 0.000 1.110
52 156.00 1200.01 211 501 2.000 10000.000 0.000 1.110
53 159.00 1200.01 242 550 2.000 10000.000 0.000 1.110
54 162.00 1200.01 245 562 2.000 10000.000 0.000 1.110
55 165.00 1200.01 249 610 2.000 10000.000 0.000 1.110
56 168.00 1200.01 272 625 2.000 10000.000 0.000 1.110
57 171.00 1200.01 259 620 2.000 10000.000 0.000 1.110
58 174.00 1200.01 255 590 2.000 10000.000 0.000 1.110
59 177.00 1200.01 260 565 2.000 10000.000 0.000 1.110
60 180.00 1200.01 268 508 2.000 10000.000 0.000 1.110
61 183.00 1200.01 220 431 2.000 10000.000 0.000 1.110
62 186.00 1200.01 240 357 2.000 10000.000 0.000 1.110
63 189.00 1200.01 195 328 2.000 10000.000 0.000 1.110
64 192.00 1200.01 214 285 2.000 10000.000 0.000 1.110
65 195.00 1200.01 189 244 2.000 10000.000 0.000 1.110
66 198.00 1200.01 212 241 2.000 10000.000 0.000 1.110
67 201.00 1200.01 177 235 2.000 10000.000 0.000 1.110
68 204.00 1200.01 170 255 2.000 10000.000 0.000 1.110
69 207.00 1200.01 165 243 2.000 10000.000 0.000 1.110
70 210.00 1200.01 166 312 2.000 10000.000 0.000 1.110
71 213.00 1200.01 168 299 2.000 10000.000 0.000 1.110
72 216.00 1200.01 151 314 2.000 10000.000 0.000 1.110
73 219.00 1200.01 172 314 2.000 10000.000 0.000 1.110
74 222.00 1200.01 156 297 2.000 10000.000 0.000 1.110
75 225.00 1200.01 165 243 2.000 10000.000 0.000 1.110
76 228.00 1200.01 180 248 2.000 10000.000 0.000 1.110
77 231.00 1200.01 158 242 2.000 10000.000 0.000 1.110
78 234.00 1200.01 152 218 2.000 10000.000 0.000 1.110
79 237.00 1200.01 166 248 2.000 10000.000 0.000 1.110
80 240.00 1200.01 184 256 2.000 10000.000 0.000 1.110
81 243.00 1200.01 171 240 2.000 10000.000 0.000 1.110
82 246.00 1200.01 167 297 2.000 10000.000 0.000 1.110
83 249.00 1200.01 212 341 2.000 10000.000 0.000 1.110
84 252.00 1200.01 227 436 2.000 10000.000 0.000 1.110
85 255.00 1200.01 237 466 2.000 10000.000 0.000 1.110
86 258.00 1200.01 259 567 2.000 10000.000 0.000 1.110
87 261.00 1200.01 245 545 2.000 10000.000 0.000 1.110
88 264.00 1200.01 249 611 2.000 10000.000 0.000 1.110
89 267.00 1200.01 253 554 2.000 10000.000 0.000 1.110
90 270.00 1200.01 262 584 2.000 10000.000 0.000 1.110
91 273.00 1200.01 278 591 2.000 10000.000 0.000 1.110
92 276.00 1200.01 234 578 2.000 10000.000 0.000 1.110
93 279.00 1200.01 234 504 2.000 10000.000 0.000 1.110
94 282.00 1200.01 252 453 2.000 10000.000 0.000 1.110
95 285.00 1200.01 262 384 2.000 10000.000 0.000 1.110
96 288.00 1200.01 239 352 2.000 10000.000 0.000 1.110
97 291.00 1200.01 238 267 2.000 10000.000 0.000 1.110
98 294.00 1200.01 199 256 2.000 10000.000 0.000 1.110
99 297.00 1200.01 202 266 2.000 10000.000 0.000 1.110
100 300.00 1200.01 141 194 2.000 10000.000 0.000 1.110
