# BinNR microsec tot-time (s)  O-Beam AUX Ampl(V) f(Hz) phase(deg) chi(pos)
0 0.00 1200.04 95 93 2.000 10000.000 0.000 -1.099
1 3.00 1200.04 193 269 2.000 10000.000 0.000 -1.099
2 6.00 1200.04 177 239 2.000 10000.000 0.000 -1.099
3 9.00 1200.04 183 228 2.000 10000.000 0.000 -1.099
4 12.00 1200.04 160 272 2.000 10000.000 0.000 -1.099
5 15.00 1200.04 175 254 2.000 10000.000 0.000 -1.099
6 18.00 1200.04 160 273 2.000 10000.000 0.000 -1.099
7 21.00 1200.04 176 292 2.000 10000.000 0.000 -1.099
8 24.00 1200.04 176 249 2.000 10000.000 0.000 -1.099
9 27.00 1200.04 146 228 2.000 10000.000 0.000 -1.099
10 30.00 1200.04 165 217 2.000 10000.000 0.000 -1.099
11 33.00 1200.04 162 241 2.000 10000.000 0.000 -1.099
12 36.00 1200.04 176 266 2.000 10000.000 0.000 -1.099
13 39.00 1200.04 181 252 2.000 10000.000 0.000 -1.099
14 42.00 1200.04 200 278 2.000 10000.000 0.000 -1.099
15 45.00 1200.04 234 346 2.000 10000.000 0.000 -1.099
16 48.00 1200.04 200 434 2.000 10000.000 0.000 -1.099
17 51.00 1200.04 227 491 2.000 10000.000 0.000 -1.099
18 54.00 1200.04 260 585 2.000 10000.000 0.000 -1.099
19 57.00 1200.04 281 575 2.000 10000.000 0.000 -1.099
20 60.00 1200.04 286 662 2.000 10000.000 0.000 -1.099
21 63.00 1200.04 309 729 2.000 10000.000 0.000 -1.099
22 66.00 1200.04 299 729 2.000 10000.000 0.000 -1.099
23 69.00 1200.04 293 725 2.000 10000.000 0.000 -1.099
24 72.00 1200.04 307 673 2.000 10000.000 0.000 -1.099
25 75.00 1200.04 288 671 2.000 10000.000 0.000 -1.099
26 78.00 1200.04 290 629 2.000 10000.000 0.000 -1.099
27 81.00 1200.04 289 557 2.000 10000.000 0.000 -1.099
28 84.00 1200.04 275 513 2.000 10000.000 0.000 -1.099
29 87.00 1200.04 245 406 2.000 10000.000 0.000 -1.099
30 90.00 1200.04 229 336 2.000 10000.000 0.000 -1.099
31 93.00 1200.04 234 291 2.000 10000.000 0.000 -1.099
32 96.00 1200.04 230 258 2.000 10000.000 0.000 -1.099
33 99.00 1200.04 190 240 2.000 10000.000 0.000 -1.099
34 102.00 1200.04 175 238 2.000 10000.000 0.000 -1.099
35 105.00 1200.04 187 216 2.000 10000.000 0.000 -1.099
36 108.00 1200.04 179 236 2.000 10000.000 0.000 -1.099
37 111.00 1200.04 178 236 2.000 10000.000 0.000 -1.099
38 114.00 1200.04 183 276 2.000 10000.000 0.000 -1.099
39 117.00 1200.04 174 287 2.000 10000.000 0.000 -1.099
40 120.00 1200.04 174 254 2.000 10000.000 0.000 -1.099
41 123.00 1200.04 172 229 2.000 10000.000 0.000 -1.099
42 126.00 1200.04 165 274 2.000 10000.000 0.000 -1.099
43 129.00 1200.04 152 223 2.000 10000.000 0.000 -1.099
44 132.00 1200.04 158 241 2.000 10000.000 0.000 -1.099
45 135.00 1200.04 150 248 2.000 10000.000 0.000 -1.099
46 138.00 1200.04 180 265 2.000 10000.000 0.000 -1.099
47 141.00 1200.04 166 316 2.000 10000.000 0.000 -1.099
48 144.00 1200.04 211 364 2.000 10000.000 0.000 -1.099
49 147.00 1200.04 213 428 2.000 10000.000 0.000 -1.099
50 150.00 1200.04 206 475 2.000 10000.000 0.000 -1.099
51 153.00 1200.04 242 516 2.000 10000.000 0.000 -1.099
52 156.00 1200.04 278 558 2.000 10000.000 0.000 -1.099
53 159.00 1200.04 278 657 2.000 10000.000 0.000 -1.099
54 162.00 1200.04 303 689 2.000 10000.000 0.000 -1.099
55 165.00 1200.04 290 749 2.000 10000.000 0.000 -1.099
56 168.00 1200.04 313 720 2.000 10000.000 0.000 -1.099
57 171.00 1200.04 300 675 2.000 10000.000 0.000 -1.099
58 174.00 1200.04 299 645 2.000 10000.000 0.000 -1.099
59 177.00 1200.04 301 658 2.000 10000.000 0.000 -1.099
60 180.00 1200.04 317 607 2.000 10000.000 0.000 -1.099
61 183.00 1200.04 245 524 2.000 10000.000 0.000 -1.099
62 186.00 1200.04 262 476 2.000 10000.000 0.000 -1.099
63 189.00 1200.04 276 349 2.000 10000.000 0.000 -1.099
64 192.00 1200.04 241 339 2.000 10000.000 0.000 -1.099
65 195.00 1200.04 210 227 2.000 10000.000 0.000 -1.099
66 198.00 1200.04 208 216 2.000 10000.000 0.000 -1.099
67 201.00 1200.04 204 249 2.000 10000.000 0.000 -1.099
68 204.00 1200.04 205 248 2.000 10000.000 0.000 -1.099
69 207.00 1200.04 172 237 2.000 10000.000 0.000 -1.099
70 210.00 1200.04 185 223 2.000 10000.000 0.000 -1.099
71 213.00 1200.04 152 230 2.000 10000.000 0.000 -1.099
72 216.00 1200.04 161 267 2.000 10000.000 0.000 -1.099
73 219.00 1200.04 161 282 2.000 10000.000 0.000 -1.099
74 222.00 1200.04 180 252 2.000 10000.000 0.000 -1.099
75 225.00 1200.04 142 249 2.000 10000.000 0.000 -1.099
76 228.00 1200.04 184 247 2.000 10000.000 0.000 -1.099
77 231.00 1200.04 164 244 2.000 10000.000 0.000 -1.099
78 234.00 1200.04 181 244 2.000 10000.000 0.000 -1.099
79 237.00 1200.04 166 243 2.000 10000.000 0.000 -1.099
80 240.00 1200.04 196 290 2.000 10000.000 0.000 -1.099
81 243.00 1200.04 203 312 2.000 10000.000 0.000 -1.099
82 246.00 1200.04 220 327 2.000 10000.000 0.000 -1.099
83 249.00 1200.04 238 472 2.000 10000.000 0.000 -1.099
84 252.00 1200.04 244 507 2.000 10000.000 0.000 -1.099
85 255.00 1200.04 246 618 2.000 10000.000 0.000 -1.099
86 258.00 1200.04 283 665 2.000 10000.000 0.000 -1.099
87 261.00 1200.04 276 672 2.000 10000.000 0.000 -1.099
88 264.00 1200.04 311 710 2.000 10000.000 0.000 -1.099
89 267.00 1200.04 298 725 2.000 10000.000 0.000 -1.099
90 270.00 1200.04 297 711 2.000 10000.000 0.000 -1.099
91 273.00 1200.04 282 688 2.000 10000.000 0.000 -1.099
92 276.00 1200.04 278 717 2.000 10000.000 0.000 -1.099
93 279.00 1200.04 285 592 2.000 10000.000 0.000 -1.099
94 282.00 1200.04 284 508 2.000 10000.000 0.000 -1.099
95 285.00 1200.04 276 480 2.000 10000.000 0.000 -1.099
96 288.00 1200.04 246 402 2.000 10000.000 0.000 -1.099
97 291.00 1200.04 229 303 2.000 10000.000 0.000 -1.099
98 294.00 1200.04 231 292 2.000 10000.000 0.000 -1.099
99 297.00 1200.04 239 268 2.000 10000.000 0.000 -1.099
100 300.00 1200.04 191 200 2.000 10000.000 0.000 -1.099
