# BinNR microsec tot-time (s)  O-Beam AUX Ampl(V) f(Hz) phase(deg) chi(pos)
0 0.00 1200.03 231 622 2.000 10000.000 0.000 -0.099
1 3.00 1200.03 421 1308 2.000 10000.000 0.000 -0.099
2 6.00 1200.03 443 1329 2.000 10000.000 0.000 -0.099
3 9.00 1200.03 386 1305 2.000 10000.000 0.000 -0.099
4 12.00 1200.03 412 1278 2.000 10000.000 0.000 -0.099
5 15.00 1200.03 418 1290 2.000 10000.000 0.000 -0.099
6 18.00 1200.03 454 1282 2.000 10000.000 0.000 -0.099
7 21.00 1200.03 432 1360 2.000 10000.000 0.000 -0.099
8 24.00 1200.03 444 1267 2.000 10000.000 0.000 -0.099
9 27.00 1200.03 435 1311 2.000 10000.000 0.000 -0.099
10 30.00 1200.03 444 1290 2.000 10000.000 0.000 -0.099
11 33.00 1200.03 395 1280 2.000 10000.000 0.000 -0.099
12 36.00 1200.03 395 1225 2.000 10000.000 0.000 -0.099
13 39.00 1200.03 430 1254 2.000 10000.000 0.000 -0.099
14 42.00 1200.03 419 1190 2.000 10000.000 0.000 -0.099
15 45.00 1200.03 362 1151 2.000 10000.000 0.000 -0.099
16 48.00 1200.03 372 1058 2.000 10000.000 0.000 -0.099
17 51.00 1200.03 341 965 2.000 10000.000 0.000 -0.099
18 54.00 1200.03 293 899 2.000 10000.000 0.000 -0.099
19 57.00 1200.03 302 762 2.000 10000.000 0.000 -0.099
20 60.00 1200.03 282 741 2.000 10000.000 0.000 -0.099
21 63.00 1200.03 277 727 2.000 10000.000 0.000 -0.099
22 66.00 1200.03 284 711 2.000 10000.000 0.000 -0.099
23 69.00 1200.03 269 682 2.000 10000.000 0.000 -0.099
24 72.00 1200.03 258 715 2.000 10000.000 0.000 -0.099
25 75.00 1200.03 312 758 2.000 10000.000 0.000 -0.099
26 78.00 1200.03 306 798 2.000 10000.000 0.000 -0.099
27 81.00 1200.03 295 888 2.000 10000.000 0.000 -0.099
28 84.00 1200.03 331 936 2.000 10000.000 0.000 -0.099
29 87.00 1200.03 354 1023 2.000 10000.000 0.000 -0.099
30 90.00 1200.03 344 1079 2.000 10000.000 0.000 -0.099
31 93.00 1200.03 369 1147 2.000 10000.000 0.000 -0.099
32 96.00 1200.03 396 1250 2.000 10000.000 0.000 -0.099
33 99.00 1200.03 377 1215 2.000 10000.000 0.000 -0.099
34 102.00 1200.03 383 1379 2.000 10000.000 0.000 -0.099
35 105.00 1200.03 403 1312 2.000 10000.000 0.000 -0.099
36 108.00 1200.03 433 1304 2.000 10000.000 0.000 -0.099
37 111.00 1200.03 429 1245 2.000 10000.000 0.000 -0.099
38 114.00 1200.03 410 1281 2.000 10000.000 0.000 -0.099
39 117.00 1200.03 398 1287 2.000 10000.000 0.000 -0.099
40 120.00 1200.03 448 1260 2.000 10000.000 0.000 -0.099
41 123.00 1200.03 443 1313 2.000 10000.000 0.000 -0.099
42 126.00 1200.03 448 1290 2.000 10000.000 0.000 -0.099
43 129.00 1200.03 427 1259 2.000 10000.000 0.000 -0.099
44 132.00 1200.03 401 1332 2.000 10000.000 0.000 -0.099
45 135.00 1200.03 427 1197 2.000 10000.000 0.000 -0.099
46 138.00 1200.03 416 1302 2.000 10000.000 0.000 -0.099
47 141.00 1200.03 415 1142 2.000 10000.000 0.000 -0.099
48 144.00 1200.03 374 1120 2.000 10000.000 0.000 -0.099
49 147.00 1200.03 365 1099 2.000 10000.000 0.000 -0.099
50 150.00 1200.03 355 983 2.000 10000.000 0.000 -0.099
51 153.00 1200.03 350 915 2.000 10000.000 0.000 -0.099
52 156.00 1200.03 321 845 2.000 10000.000 0.000 -0.099
53 159.00 1200.03 280 774 2.000 10000.000 0.000 -0.099
54 162.00 1200.03 253 769 2.000 10000.000 0.000 -0.099
55 165.00 1200.03 296 698 2.000 10000.000 0.000 -0.099
56 168.00 1200.03 288 692 2.000 10000.000 0.000 -0.099
57 171.00 1200.03 274 713 2.000 10000.000 0.000 -0.099
58 174.00 1200.03 263 755 2.000 10000.000 0.000 -0.099
59 177.00 1200.03 272 763 2.000 10000.000 0.000 -0.099
60 180.00 1200.03 289 837 2.000 10000.000 0.000 -0.099
61 183.00 1200.03 301 936 2.000 10000.000 0.000 -0.099
62 186.00 1200.03 359 973 2.000 10000.000 0.000 -0.099
63 189.00 1200.03 334 1115 2.000 10000.000 0.000 -0.099
64 192.00 1200.03 383 1155 2.000 10000.000 0.000 -0.099
65 195.00 1200.03 319 1242 2.000 10000.000 0.000 -0.099
66 198.00 1200.03 384 1244 2.000 10000.000 0.000 -0.099
67 201.00 1200.03 401 1261 2.000 10000.000 0.000 -0.099
68 204.00 1200.03 410 1298 2.000 10000.000 0.000 -0.099
69 207.00 1200.03 393 1277 2.000 10000.000 0.000 -0.099
70 210.00 1200.03 423 1337 2.000 10000.000 0.000 -0.099
71 213.00 1200.03 437 1291 2.000 10000.000 0.000 -0.099
72 216.00 1200.03 403 1316 2.000 10000.000 0.000 -0.099
73 219.00 1200.03 421 1302 2.000 10000.000 0.000 -0.099
74 222.00 1200.03 444 1349 2.000 10000.000 0.000 -0.099
75 225.00 1200.03 440 1323 2.000 10000.000 0.000 -0.099
76 228.00 1200.03 444 1295 2.000 10000.000 0.000 -0.099
77 231.00 1200.03 427 1325 2.000 10000.000 0.000 -0.099
78 234.00 1200.03 437 1309 2.000 10000.000 0.000 -0.099
79 237.00 1200.03 435 1182 2.000 10000.000 0.000 -0.099
80 240.00 1200.03 478 1223 2.000 10000.000 0.000 -0.099
81 243.00 1200.03 416 1115 2.000 10000.000 0.000 -0.099
82 246.00 1200.03 381 1072 2.000 10000.000 0.000 -0.099
83 249.00 1200.03 353 953 2.000 10000.000 0.000 -0.099
84 252.00 1200.03 349 940 2.000 10000.000 0.000 -0.099
85 255.00 1200.03 345 802 2.000 10000.000 0.000 -0.099
86 258.00 1200.03 318 794 2.000 10000.000 0.000 -0.099
87 261.00 1200.03 255 714 2.000 10000.000 0.000 -0.099
88 264.00 1200.03 272 726 2.000 10000.000 0.000 -0.099
89 267.00 1200.03 268 694 2.000 10000.000 0.000 -0.099
90 270.00 1200.03 263 712 2.000 10000.000 0.000 -0.099
91 273.00 1200.03 267 714 2.000 10000.000 0.000 -0.099
92 276.00 1200.03 299 787 2.000 10000.000 0.000 -0.099
93 279.00 1200.03 252 826 2.000 10000.000 0.000 -0.099
94 282.00 1200.03 290 860 2.000 10000.000 0.000 -0.099
95 285.00 1200.03 337 927 2.000 10000.000 0.000 -0.099
96 288.00 1200.03 346 1045 2.000 10000.000 0.000 -0.099
97 291.00 1200.03 365 1165 2.000 10000.000 0.000 -0.099
98 294.00 1200.03 345 1241 2.000 10000.000 0.000 -0.099
99 297.00 1200.03 349 1293 2.000 10000.000 0.000 -0.099
100 300.00 1200.03 281 1032 2.000 10000.000 0.000 -0.099
