# BinNR microsec tot-time (s)  O-Beam AUX Ampl(V) f(Hz) phase(deg) chi(pos)
0 0.00 1200.01 190 593 2.000 10000.000 0.000 0.286
1 3.00 1200.01 387 1139 2.000 10000.000 0.000 0.286
2 6.00 1200.01 410 1162 2.000 10000.000 0.000 0.286
3 9.00 1200.01 427 1060 2.000 10000.000 0.000 0.286
4 12.00 1200.01 384 1023 2.000 10000.000 0.000 0.286
5 15.00 1200.01 400 995 2.000 10000.000 0.000 0.286
6 18.00 1200.01 428 1021 2.000 10000.000 0.000 0.286
7 21.00 1200.01 356 990 2.000 10000.000 0.000 0.286
8 24.00 1200.01 387 1102 2.000 10000.000 0.000 0.286
9 27.00 1200.01 437 1140 2.000 10000.000 0.000 0.286
10 30.00 1200.01 422 1127 2.000 10000.000 0.000 0.286
11 33.00 1200.01 429 1117 2.000 10000.000 0.000 0.286
12 36.00 1200.01 461 1198 2.000 10000.000 0.000 0.286
13 39.00 1200.01 412 1211 2.000 10000.000 0.000 0.286
14 42.00 1200.01 468 1279 2.000 10000.000 0.000 0.286
15 45.00 1200.01 443 1276 2.000 10000.000 0.000 0.286
16 48.00 1200.01 458 1251 2.000 10000.000 0.000 0.286
17 51.00 1200.01 440 1201 2.000 10000.000 0.000 0.286
18 54.00 1200.01 472 1252 2.000 10000.000 0.000 0.286
19 57.00 1200.01 413 1139 2.000 10000.000 0.000 0.286
20 60.00 1200.01 439 1155 2.000 10000.000 0.000 0.286
21 63.00 1200.01 360 1141 2.000 10000.000 0.000 0.286
22 66.00 1200.01 422 1079 2.000 10000.000 0.000 0.286
23 69.00 1200.01 371 1147 2.000 10000.000 0.000 0.286
24 72.00 1200.01 397 1166 2.000 10000.000 0.000 0.286
25 75.00 1200.01 375 1128 2.000 10000.000 0.000 0.286
26 78.00 1200.01 386 1247 2.000 10000.000 0.000 0.286
27 81.00 1200.01 396 1188 2.000 10000.000 0.000 0.286
28 84.00 1200.01 413 1225 2.000 10000.000 0.000 0.286
29 87.00 1200.01 441 1223 2.000 10000.000 0.000 0.286
30 90.00 1200.01 431 1294 2.000 10000.000 0.000 0.286
31 93.00 1200.01 417 1203 2.000 10000.000 0.000 0.286
32 96.00 1200.01 427 1275 2.000 10000.000 0.000 0.286
33 99.00 1200.01 400 1204 2.000 10000.000 0.000 0.286
34 102.00 1200.01 437 1166 2.000 10000.000 0.000 0.286
35 105.00 1200.01 398 1143 2.000 10000.000 0.000 0.286
36 108.00 1200.01 407 1131 2.000 10000.000 0.000 0.286
37 111.00 1200.01 428 1050 2.000 10000.000 0.000 0.286
38 114.00 1200.01 401 1061 2.000 10000.000 0.000 0.286
39 117.00 1200.01 420 1002 2.000 10000.000 0.000 0.286
40 120.00 1200.01 378 1030 2.000 10000.000 0.000 0.286
41 123.00 1200.01 407 1012 2.000 10000.000 0.000 0.286
42 126.00 1200.01 387 1061 2.000 10000.000 0.000 0.286
43 129.00 1200.01 396 1069 2.000 10000.000 0.000 0.286
44 132.00 1200.01 470 1171 2.000 10000.000 0.000 0.286
45 135.00 1200.01 437 1217 2.000 10000.000 0.000 0.286
46 138.00 1200.01 387 1279 2.000 10000.000 0.000 0.286
47 141.00 1200.01 426 1288 2.000 10000.000 0.000 0.286
48 144.00 1200.01 489 1251 2.000 10000.000 0.000 0.286
49 147.00 1200.01 422 1238 2.000 10000.000 0.000 0.286
50 150.00 1200.01 441 1259 2.000 10000.000 0.000 0.286
51 153.00 1200.01 409 1255 2.000 10000.000 0.000 0.286
52 156.00 1200.01 388 1246 2.000 10000.000 0.000 0.286
53 159.00 1200.01 421 1091 2.000 10000.000 0.000 0.286
54 162.00 1200.01 403 1212 2.000 10000.000 0.000 0.286
55 165.00 1200.01 406 1146 2.000 10000.000 0.000 0.286
56 168.00 1200.01 369 1103 2.000 10000.000 0.000 0.286
57 171.00 1200.01 423 1103 2.000 10000.000 0.000 0.286
58 174.00 1200.01 391 1200 2.000 10000.000 0.000 0.286
59 177.00 1200.01 392 1178 2.000 10000.000 0.000 0.286
60 180.00 1200.01 419 1134 2.000 10000.000 0.000 0.286
61 183.00 1200.01 427 1267 2.000 10000.000 0.000 0.286
62 186.00 1200.01 406 1280 2.000 10000.000 0.000 0.286
63 189.00 1200.01 441 1279 2.000 10000.000 0.000 0.286
64 192.00 1200.01 410 1257 2.000 10000.000 0.000 0.286
65 195.00 1200.01 416 1251 2.000 10000.000 0.000 0.286
66 198.00 1200.01 392 1224 2.000 10000.000 0.000 0.286
67 201.00 1200.01 409 1155 2.000 10000.000 0.000 0.286
68 204.00 1200.01 418 1082 2.000 10000.000 0.000 0.286
69 207.00 1200.01 415 1088 2.000 10000.000 0.000 0.286
70 210.00 1200.01 381 1102 2.000 10000.000 0.000 0.286
71 213.00 1200.01 378 1021 2.000 10000.000 0.000 0.286
72 216.00 1200.01 407 1029 2.000 10000.000 0.000 0.286
73 219.00 1200.01 366 982 2.000 10000.000 0.000 0.286
74 222.00 1200.01 390 1030 2.000 10000.000 0.000 0.286
75 225.00 1200.01 436 1039 2.000 10000.000 0.000 0.286
76 228.00 1200.01 390 1146 2.000 10000.000 0.000 0.286
77 231.00 1200.01 417 1084 2.000 10000.000 0.000 0.286
78 234.00 1200.01 430 1178 2.000 10000.000 0.000 0.286
79 237.00 1200.01 454 1230 2.000 10000.000 0.000 0.286
80 240.00 1200.01 448 1285 2.000 10000.000 0.000 0.286
81 243.00 1200.01 417 1225 2.000 10000.000 0.000 0.286
82 246.00 1200.01 423 1272 2.000 10000.000 0.000 0.286
83 249.00 1200.01 440 1292 2.000 10000.000 0.000 0.286
84 252.00 1200.01 415 1306 2.000 10000.000 0.000 0.286
85 255.00 1200.01 415 1163 2.000 10000.000 0.000 0.286
86 258.00 1200.01 385 1182 2.000 10000.000 0.000 0.286
87 261.00 1200.01 435 1121 2.000 10000.000 0.000 0.286
88 264.00 1200.01 428 1116 2.000 10000.000 0.000 0.286
89 267.00 1200.01 403 1047 2.000 10000.000 0.000 0.286
90 270.00 1200.01 387 1101 2.000 10000.000 0.000 0.286
91 273.00 1200.01 395 1093 2.000 10000.000 0.000 0.286
92 276.00 1200.01 393 1122 2.000 10000.000 0.000 0.286
93 279.00 1200.01 411 1208 2.000 10000.000 0.000 0.286
94 282.00 1200.01 404 1257 2.000 10000.000 0.000 0.286
95 285.00 1200.01 410 1266 2.000 10000.000 0.000 0.286
96 288.00 1200.01 393 1295 2.000 10000.000 0.000 0.286
97 291.00 1200.01 385 1281 2.000 10000.000 0.000 0.286
98 294.00 1200.01 418 1232 2.000 10000.000 0.000 0.286
99 297.00 1200.01 411 1177 2.000 10000.000 0.000 0.286
100 300.00 1200.01 313 1024 2.000 10000.000 0.000 0.286
