# BinNR microsec tot-time (s)  O-Beam AUX Ampl(V) f(Hz) phase(deg) chi(pos)
0 0.00 1200.02 121 374 2.000 10000.000 0.000 -0.714
1 3.00 1200.02 237 744 2.000 10000.000 0.000 -0.714
2 6.00 1200.02 256 811 2.000 10000.000 0.000 -0.714
3 9.00 1200.02 283 801 2.000 10000.000 0.000 -0.714
4 12.00 1200.02 253 811 2.000 10000.000 0.000 -0.714
5 15.00 1200.02 288 824 2.000 10000.000 0.000 -0.714
6 18.00 1200.02 295 827 2.000 10000.000 0.000 -0.714
7 21.00 1200.02 275 742 2.000 10000.000 0.000 -0.714
8 24.00 1200.02 264 771 2.000 10000.000 0.000 -0.714
9 27.00 1200.02 273 760 2.000 10000.000 0.000 -0.714
10 30.00 1200.02 295 695 2.000 10000.000 0.000 -0.714
11 33.00 1200.02 249 659 2.000 10000.000 0.000 -0.714
12 36.00 1200.02 262 646 2.000 10000.000 0.000 -0.714
13 39.00 1200.02 239 563 2.000 10000.000 0.000 -0.714
14 42.00 1200.02 221 588 2.000 10000.000 0.000 -0.714
15 45.00 1200.02 191 460 2.000 10000.000 0.000 -0.714
16 48.00 1200.02 198 441 2.000 10000.000 0.000 -0.714
17 51.00 1200.02 180 372 2.000 10000.000 0.000 -0.714
18 54.00 1200.02 201 348 2.000 10000.000 0.000 -0.714
19 57.00 1200.02 170 363 2.000 10000.000 0.000 -0.714
20 60.00 1200.02 150 295 2.000 10000.000 0.000 -0.714
21 63.00 1200.02 187 339 2.000 10000.000 0.000 -0.714
22 66.00 1200.02 181 356 2.000 10000.000 0.000 -0.714
23 69.00 1200.02 170 322 2.000 10000.000 0.000 -0.714
24 72.00 1200.02 205 308 2.000 10000.000 0.000 -0.714
25 75.00 1200.02 175 322 2.000 10000.000 0.000 -0.714
26 78.00 1200.02 225 354 2.000 10000.000 0.000 -0.714
27 81.00 1200.02 197 345 2.000 10000.000 0.000 -0.714
28 84.00 1200.02 213 419 2.000 10000.000 0.000 -0.714
29 87.00 1200.02 237 394 2.000 10000.000 0.000 -0.714
30 90.00 1200.02 224 469 2.000 10000.000 0.000 -0.714
31 93.00 1200.02 203 556 2.000 10000.000 0.000 -0.714
32 96.00 1200.02 219 616 2.000 10000.000 0.000 -0.714
33 99.00 1200.02 221 597 2.000 10000.000 0.000 -0.714
34 102.00 1200.02 220 726 2.000 10000.000 0.000 -0.714
35 105.00 1200.02 252 749 2.000 10000.000 0.000 -0.714
36 108.00 1200.02 261 770 2.000 10000.000 0.000 -0.714
37 111.00 1200.02 243 847 2.000 10000.000 0.000 -0.714
38 114.00 1200.02 302 867 2.000 10000.000 0.000 -0.714
39 117.00 1200.02 279 827 2.000 10000.000 0.000 -0.714
40 120.00 1200.02 264 822 2.000 10000.000 0.000 -0.714
41 123.00 1200.02 263 764 2.000 10000.000 0.000 -0.714
42 126.00 1200.02 273 735 2.000 10000.000 0.000 -0.714
43 129.00 1200.02 270 774 2.000 10000.000 0.000 -0.714
44 132.00 1200.02 253 722 2.000 10000.000 0.000 -0.714
45 135.00 1200.02 276 681 2.000 10000.000 0.000 -0.714
46 138.00 1200.02 229 628 2.000 10000.000 0.000 -0.714
47 141.00 1200.02 200 510 2.000 10000.000 0.000 -0.714
48 144.00 1200.02 221 478 2.000 10000.000 0.000 -0.714
49 147.00 1200.02 192 446 2.000 10000.000 0.000 -0.714
50 150.00 1200.02 206 434 2.000 10000.000 0.000 -0.714
51 153.00 1200.02 172 374 2.000 10000.000 0.000 -0.714
52 156.00 1200.02 190 348 2.000 10000.000 0.000 -0.714
53 159.00 1200.02 182 295 2.000 10000.000 0.000 -0.714
54 162.00 1200.02 180 321 2.000 10000.000 0.000 -0.714
55 165.00 1200.02 150 319 2.000 10000.000 0.000 -0.714
56 168.00 1200.02 211 302 2.000 10000.000 0.000 -0.714
57 171.00 1200.02 180 303 2.000 10000.000 0.000 -0.714
58 174.00 1200.02 193 346 2.000 10000.000 0.000 -0.714
59 177.00 1200.02 174 337 2.000 10000.000 0.000 -0.714
60 180.00 1200.02 192 378 2.000 10000.000 0.000 -0.714
61 183.00 1200.02 191 372 2.000 10000.000 0.000 -0.714
62 186.00 1200.02 184 389 2.000 10000.000 0.000 -0.714
63 189.00 1200.02 202 458 2.000 10000.000 0.000 -0.714
64 192.00 1200.02 189 533 2.000 10000.000 0.000 -0.714
65 195.00 1200.02 219 527 2.000 10000.000 0.000 -0.714
66 198.00 1200.02 237 601 2.000 10000.000 0.000 -0.714
67 201.00 1200.02 240 723 2.000 10000.000 0.000 -0.714
68 204.00 1200.02 264 777 2.000 10000.000 0.000 -0.714
69 207.00 1200.02 264 780 2.000 10000.000 0.000 -0.714
70 210.00 1200.02 286 764 2.000 10000.000 0.000 -0.714
71 213.00 1200.02 276 835 2.000 10000.000 0.000 -0.714
72 216.00 1200.02 275 839 2.000 10000.000 0.000 -0.714
73 219.00 1200.02 281 858 2.000 10000.000 0.000 -0.714
74 222.00 1200.02 277 846 2.000 10000.000 0.000 -0.714
75 225.00 1200.02 278 793 2.000 10000.000 0.000 -0.714
76 228.00 1200.02 273 755 2.000 10000.000 0.000 -0.714
77 231.00 1200.02 266 710 2.000 10000.000 0.000 -0.714
78 234.00 1200.02 272 692 2.000 10000.000 0.000 -0.714
79 237.00 1200.02 220 652 2.000 10000.000 0.000 -0.714
80 240.00 1200.02 223 596 2.000 10000.000 0.000 -0.714
81 243.00 1200.02 223 507 2.000 10000.000 0.000 -0.714
82 246.00 1200.02 204 500 2.000 10000.000 0.000 -0.714
83 249.00 1200.02 190 415 2.000 10000.000 0.000 -0.714
84 252.00 1200.02 186 370 2.000 10000.000 0.000 -0.714
85 255.00 1200.02 150 331 2.000 10000.000 0.000 -0.714
86 258.00 1200.02 184 354 2.000 10000.000 0.000 -0.714
87 261.00 1200.02 159 348 2.000 10000.000 0.000 -0.714
88 264.00 1200.02 204 290 2.000 10000.000 0.000 -0.714
89 267.00 1200.02 184 322 2.000 10000.000 0.000 -0.714
90 270.00 1200.02 190 309 2.000 10000.000 0.000 -0.714
91 273.00 1200.02 180 302 2.000 10000.000 0.000 -0.714
92 276.00 1200.02 197 313 2.000 10000.000 0.000 -0.714
93 279.00 1200.02 204 330 2.000 10000.000 0.000 -0.714
94 282.00 1200.02 198 367 2.000 10000.000 0.000 -0.714
95 285.00 1200.02 217 437 2.000 10000.000 0.000 -0.714
96 288.00 1200.02 179 417 2.000 10000.000 0.000 -0.714
97 291.00 1200.02 196 493 2.000 10000.000 0.000 -0.714
98 294.00 1200.02 206 549 2.000 10000.000 0.000 -0.714
99 297.00 1200.02 241 600 2.000 10000.000 0.000 -0.714
100 300.00 1200.02 190 584 2.000 10000.000 0.000 -0.714
