# BinNR microsec tot-time (s)  O-Beam AUX Ampl(V) f(Hz) phase(deg) chi(pos)
0 0.00 1200.00 110 319 2.000 10000.000 0.000 1.296
1 3.00 1200.00 223 638 2.000 10000.000 0.000 1.296
2 6.00 1200.00 233 652 2.000 10000.000 0.000 1.296
3 9.00 1200.00 249 706 2.000 10000.000 0.000 1.296
4 12.00 1200.00 251 738 2.000 10000.000 0.000 1.296
5 15.00 1200.00 218 696 2.000 10000.000 0.000 1.296
6 18.00 1200.00 212 675 2.000 10000.000 0.000 1.296
7 21.00 1200.00 230 675 2.000 10000.000 0.000 1.296
8 24.00 1200.00 224 693 2.000 10000.000 0.000 1.296
9 27.00 1200.00 250 632 2.000 10000.000 0.000 1.296
10 30.00 1200.00 267 625 2.000 10000.000 0.000 1.296
11 33.00 1200.00 212 561 2.000 10000.000 0.000 1.296
12 36.00 1200.00 223 584 2.000 10000.000 0.000 1.296
13 39.00 1200.00 198 579 2.000 10000.000 0.000 1.296
14 42.00 1200.00 187 460 2.000 10000.000 0.000 1.296
15 45.00 1200.00 189 449 2.000 10000.000 0.000 1.296
16 48.00 1200.00 161 403 2.000 10000.000 0.000 1.296
17 51.00 1200.00 181 354 2.000 10000.000 0.000 1.296
18 54.00 1200.00 182 353 2.000 10000.000 0.000 1.296
19 57.00 1200.00 128 344 2.000 10000.000 0.000 1.296
20 60.00 1200.00 140 298 2.000 10000.000 0.000 1.296
21 63.00 1200.00 127 275 2.000 10000.000 0.000 1.296
22 66.00 1200.00 151 273 2.000 10000.000 0.000 1.296
23 69.00 1200.00 148 274 2.000 10000.000 0.000 1.296
24 72.00 1200.00 163 285 2.000 10000.000 0.000 1.296
25 75.00 1200.00 136 272 2.000 10000.000 0.000 1.296
26 78.00 1200.00 166 286 2.000 10000.000 0.000 1.296
27 81.00 1200.00 139 312 2.000 10000.000 0.000 1.296
28 84.00 1200.00 139 368 2.000 10000.000 0.000 1.296
29 87.00 1200.00 175 403 2.000 10000.000 0.000 1.296
30 90.00 1200.00 193 447 2.000 10000.000 0.000 1.296
31 93.00 1200.00 183 447 2.000 10000.000 0.000 1.296
32 96.00 1200.00 210 542 2.000 10000.000 0.000 1.296
33 99.00 1200.00 185 554 2.000 10000.000 0.000 1.296
34 102.00 1200.00 201 700 2.000 10000.000 0.000 1.296
35 105.00 1200.00 246 593 2.000 10000.000 0.000 1.296
36 108.00 1200.00 234 677 2.000 10000.000 0.000 1.296
37 111.00 1200.00 229 651 2.000 10000.000 0.000 1.296
38 114.00 1200.00 225 699 2.000 10000.000 0.000 1.296
39 117.00 1200.00 227 742 2.000 10000.000 0.000 1.296
40 120.00 1200.00 232 665 2.000 10000.000 0.000 1.296
41 123.00 1200.00 236 718 2.000 10000.000 0.000 1.296
42 126.00 1200.00 247 671 2.000 10000.000 0.000 1.296
43 129.00 1200.00 217 661 2.000 10000.000 0.000 1.296
44 132.00 1200.00 235 660 2.000 10000.000 0.000 1.296
45 135.00 1200.00 207 603 2.000 10000.000 0.000 1.296
46 138.00 1200.00 219 573 2.000 10000.000 0.000 1.296
47 141.00 1200.00 195 518 2.000 10000.000 0.000 1.296
48 144.00 1200.00 167 447 2.000 10000.000 0.000 1.296
49 147.00 1200.00 149 396 2.000 10000.000 0.000 1.296
50 150.00 1200.00 167 396 2.000 10000.000 0.000 1.296
51 153.00 1200.00 144 354 2.000 10000.000 0.000 1.296
52 156.00 1200.00 169 316 2.000 10000.000 0.000 1.296
53 159.00 1200.00 161 304 2.000 10000.000 0.000 1.296
54 162.00 1200.00 161 295 2.000 10000.000 0.000 1.296
55 165.00 1200.00 141 294 2.000 10000.000 0.000 1.296
56 168.00 1200.00 143 304 2.000 10000.000 0.000 1.296
57 171.00 1200.00 156 281 2.000 10000.000 0.000 1.296
58 174.00 1200.00 134 320 2.000 10000.000 0.000 1.296
59 177.00 1200.00 157 332 2.000 10000.000 0.000 1.296
60 180.00 1200.00 164 330 2.000 10000.000 0.000 1.296
61 183.00 1200.00 163 367 2.000 10000.000 0.000 1.296
62 186.00 1200.00 168 397 2.000 10000.000 0.000 1.296
63 189.00 1200.00 146 452 2.000 10000.000 0.000 1.296
64 192.00 1200.00 195 468 2.000 10000.000 0.000 1.296
65 195.00 1200.00 185 561 2.000 10000.000 0.000 1.296
66 198.00 1200.00 219 554 2.000 10000.000 0.000 1.296
67 201.00 1200.00 203 597 2.000 10000.000 0.000 1.296
68 204.00 1200.00 213 682 2.000 10000.000 0.000 1.296
69 207.00 1200.00 244 658 2.000 10000.000 0.000 1.296
70 210.00 1200.00 217 648 2.000 10000.000 0.000 1.296
71 213.00 1200.00 235 676 2.000 10000.000 0.000 1.296
72 216.00 1200.00 230 742 2.000 10000.000 0.000 1.296
73 219.00 1200.00 236 747 2.000 10000.000 0.000 1.296
74 222.00 1200.00 241 691 2.000 10000.000 0.000 1.296
75 225.00 1200.00 233 652 2.000 10000.000 0.000 1.296
76 228.00 1200.00 244 625 2.000 10000.000 0.000 1.296
77 231.00 1200.00 244 668 2.000 10000.000 0.000 1.296
78 234.00 1200.00 241 619 2.000 10000.000 0.000 1.296
79 237.00 1200.00 193 556 2.000 10000.000 0.000 1.296
80 240.00 1200.00 215 483 2.000 10000.000 0.000 1.296
81 243.00 1200.00 160 491 2.000 10000.000 0.000 1.296
82 246.00 1200.00 157 414 2.000 10000.000 0.000 1.296
83 249.00 1200.00 160 392 2.000 10000.000 0.000 1.296
84 252.00 1200.00 179 342 2.000 10000.000 0.000 1.296
85 255.00 1200.00 175 319 2.000 10000.000 0.000 1.296
86 258.00 1200.00 147 313 2.000 10000.000 0.000 1.296
87 261.00 1200.00 154 273 2.000 10000.000 0.000 1.296
88 264.00 1200.00 161 311 2.000 10000.000 0.000 1.296
89 267.00 1200.00 133 308 2.000 10000.000 0.000 1.296
90 270.00 1200.00 141 286 2.000 10000.000 0.000 1.296
91 273.00 1200.00 154 285 2.000 10000.000 0.000 1.296
92 276.00 1200.00 143 316 2.000 10000.000 0.000 1.296
93 279.00 1200.00 160 348 2.000 10000.000 0.000 1.296
94 282.00 1200.00 143 370 2.000 10000.000 0.000 1.296
95 285.00 1200.00 146 344 2.000 10000.000 0.000 1.296
96 288.00 1200.00 143 406 2.000 10000.000 0.000 1.296
97 291.00 1200.00 152 431 2.000 10000.000 0.000 1.296
98 294.00 1200.00 178 499 2.000 10000.000 0.000 1.296
99 297.00 1200.00 192 553 2.000 10000.000 0.000 1.296
100 300.00 1200.00 167 503 2.000 10000.000 0.000 1.296
