# BinNR microsec tot-time (s)  O-Beam AUX Ampl_1(V) f_1(Hz) phase_1(deg) Ampl_2(V) f_2(Hz) phase_2(deg) chi(pos)
0 0.00 1500.01 525 1611 0.000 0.000 0.000 1.000 10000.000 0.000 1.340
1 3.00 1500.01 966 3251 0.000 0.000 0.000 1.000 10000.000 0.000 1.340
2 6.00 1500.01 977 3359 0.000 0.000 0.000 1.000 10000.000 0.000 1.340
3 9.00 1500.01 1006 3332 0.000 0.000 0.000 1.000 10000.000 0.000 1.340
4 12.00 1500.01 984 3333 0.000 0.000 0.000 1.000 10000.000 0.000 1.340
5 15.00 1500.01 964 3259 0.000 0.000 0.000 1.000 10000.000 0.000 1.340
6 18.00 1500.01 1022 3400 0.000 0.000 0.000 1.000 10000.000 0.000 1.340
7 21.00 1500.01 991 3388 0.000 0.000 0.000 1.000 10000.000 0.000 1.340
8 24.00 1500.01 961 3329 0.000 0.000 0.000 1.000 10000.000 0.000 1.340
9 27.00 1500.01 1008 3344 0.000 0.000 0.000 1.000 10000.000 0.000 1.340
10 30.00 1500.01 1039 3342 0.000 0.000 0.000 1.000 10000.000 0.000 1.340
11 33.00 1500.01 939 3278 0.000 0.000 0.000 1.000 10000.000 0.000 1.340
12 36.00 1500.01 963 3261 0.000 0.000 0.000 1.000 10000.000 0.000 1.340
13 39.00 1500.01 933 3229 0.000 0.000 0.000 1.000 10000.000 0.000 1.340
14 42.00 1500.01 935 3232 0.000 0.000 0.000 1.000 10000.000 0.000 1.340
15 45.00 1500.01 1008 3292 0.000 0.000 0.000 1.000 10000.000 0.000 1.340
16 48.00 1500.01 985 3200 0.000 0.000 0.000 1.000 10000.000 0.000 1.340
17 51.00 1500.01 1009 3279 0.000 0.000 0.000 1.000 10000.000 0.000 1.340
18 54.00 1500.01 955 3309 0.000 0.000 0.000 1.000 10000.000 0.000 1.340
19 57.00 1500.01 993 3210 0.000 0.000 0.000 1.000 10000.000 0.000 1.340
20 60.00 1500.01 940 3305 0.000 0.000 0.000 1.000 10000.000 0.000 1.340
21 63.00 1500.01 966 3310 0.000 0.000 0.000 1.000 10000.000 0.000 1.340
22 66.00 1500.01 990 3391 0.000 0.000 0.000 1.000 10000.000 0.000 1.340
23 69.00 1500.01 966 3323 0.000 0.000 0.000 1.000 10000.000 0.000 1.340
24 72.00 1500.01 986 3367 0.000 0.000 0.000 1.000 10000.000 0.000 1.340
25 75.00 1500.01 941 3280 0.000 0.000 0.000 1.000 10000.000 0.000 1.340
26 78.00 1500.01 994 3360 0.000 0.000 0.000 1.000 10000.000 0.000 1.340
27 81.00 1500.01 976 3320 0.000 0.000 0.000 1.000 10000.000 0.000 1.340
28 84.00 1500.01 1001 3386 0.000 0.000 0.000 1.000 10000.000 0.000 1.340
29 87.00 1500.01 934 3275 0.000 0.000 0.000 1.000 10000.000 0.000 1.340
30 90.00 1500.01 954 3353 0.000 0.000 0.000 1.000 10000.000 0.000 1.340
31 93.00 1500.01 1016 3195 0.000 0.000 0.000 1.000 10000.000 0.000 1.340
32 96.00 1500.01 1008 3371 0.000 0.000 0.000 1.000 10000.000 0.000 1.340
33 99.00 1500.01 974 3171 0.000 0.000 0.000 1.000 10000.000 0.000 1.340
34 102.00 1500.01 973 3267 0.000 0.000 0.000 1.000 10000.000 0.000 1.340
35 105.00 1500.01 999 3245 0.000 0.000 0.000 1.000 10000.000 0.000 1.340
36 108.00 1500.01 997 3278 0.000 0.000 0.000 1.000 10000.000 0.000 1.340
37 111.00 1500.01 982 3468 0.000 0.000 0.000 1.000 10000.000 0.000 1.340
38 114.00 1500.01 988 3406 0.000 0.000 0.000 1.000 10000.000 0.000 1.340
39 117.00 1500.01 959 3227 0.000 0.000 0.000 1.000 10000.000 0.000 1.340
40 120.00 1500.01 999 3447 0.000 0.000 0.000 1.000 10000.000 0.000 1.340
41 123.00 1500.01 1006 3262 0.000 0.000 0.000 1.000 10000.000 0.000 1.340
42 126.00 1500.01 948 3342 0.000 0.000 0.000 1.000 10000.000 0.000 1.340
43 129.00 1500.01 976 3310 0.000 0.000 0.000 1.000 10000.000 0.000 1.340
44 132.00 1500.01 1003 3375 0.000 0.000 0.000 1.000 10000.000 0.000 1.340
45 135.00 1500.01 973 3234 0.000 0.000 0.000 1.000 10000.000 0.000 1.340
46 138.00 1500.01 940 3216 0.000 0.000 0.000 1.000 10000.000 0.000 1.340
47 141.00 1500.01 931 3230 0.000 0.000 0.000 1.000 10000.000 0.000 1.340
48 144.00 1500.01 989 3387 0.000 0.000 0.000 1.000 10000.000 0.000 1.340
49 147.00 1500.01 992 3262 0.000 0.000 0.000 1.000 10000.000 0.000 1.340
50 150.00 1500.01 950 3284 0.000 0.000 0.000 1.000 10000.000 0.000 1.340
51 153.00 1500.01 982 3279 0.000 0.000 0.000 1.000 10000.000 0.000 1.340
52 156.00 1500.01 989 3283 0.000 0.000 0.000 1.000 10000.000 0.000 1.340
53 159.00 1500.01 979 3134 0.000 0.000 0.000 1.000 10000.000 0.000 1.340
54 162.00 1500.01 928 3313 0.000 0.000 0.000 1.000 10000.000 0.000 1.340
55 165.00 1500.01 944 3243 0.000 0.000 0.000 1.000 10000.000 0.000 1.340
56 168.00 1500.01 936 3262 0.000 0.000 0.000 1.000 10000.000 0.000 1.340
57 171.00 1500.01 988 3296 0.000 0.000 0.000 1.000 10000.000 0.000 1.340
58 174.00 1500.01 959 3410 0.000 0.000 0.000 1.000 10000.000 0.000 1.340
59 177.00 1500.01 947 3356 0.000 0.000 0.000 1.000 10000.000 0.000 1.340
60 180.00 1500.01 998 3374 0.000 0.000 0.000 1.000 10000.000 0.000 1.340
61 183.00 1500.01 1024 3206 0.000 0.000 0.000 1.000 10000.000 0.000 1.340
62 186.00 1500.01 981 3308 0.000 0.000 0.000 1.000 10000.000 0.000 1.340
63 189.00 1500.01 983 3346 0.000 0.000 0.000 1.000 10000.000 0.000 1.340
64 192.00 1500.01 958 3303 0.000 0.000 0.000 1.000 10000.000 0.000 1.340
65 195.00 1500.01 958 3296 0.000 0.000 0.000 1.000 10000.000 0.000 1.340
66 198.00 1500.01 982 3254 0.000 0.000 0.000 1.000 10000.000 0.000 1.340
67 201.00 1500.01 984 3299 0.000 0.000 0.000 1.000 10000.000 0.000 1.340
68 204.00 1500.01 1008 3303 0.000 0.000 0.000 1.000 10000.000 0.000 1.340
69 207.00 1500.01 954 3211 0.000 0.000 0.000 1.000 10000.000 0.000 1.340
70 210.00 1500.01 971 3272 0.000 0.000 0.000 1.000 10000.000 0.000 1.340
71 213.00 1500.01 1004 3397 0.000 0.000 0.000 1.000 10000.000 0.000 1.340
72 216.00 1500.01 986 3396 0.000 0.000 0.000 1.000 10000.000 0.000 1.340
73 219.00 1500.01 956 3222 0.000 0.000 0.000 1.000 10000.000 0.000 1.340
74 222.00 1500.01 1081 3335 0.000 0.000 0.000 1.000 10000.000 0.000 1.340
75 225.00 1500.01 978 3294 0.000 0.000 0.000 1.000 10000.000 0.000 1.340
76 228.00 1500.01 991 3344 0.000 0.000 0.000 1.000 10000.000 0.000 1.340
77 231.00 1500.01 960 3356 0.000 0.000 0.000 1.000 10000.000 0.000 1.340
78 234.00 1500.01 1028 3266 0.000 0.000 0.000 1.000 10000.000 0.000 1.340
79 237.00 1500.01 1024 3143 0.000 0.000 0.000 1.000 10000.000 0.000 1.340
80 240.00 1500.01 1005 3302 0.000 0.000 0.000 1.000 10000.000 0.000 1.340
81 243.00 1500.01 923 3299 0.000 0.000 0.000 1.000 10000.000 0.000 1.340
82 246.00 1500.01 1000 3307 0.000 0.000 0.000 1.000 10000.000 0.000 1.340
83 249.00 1500.01 998 3203 0.000 0.000 0.000 1.000 10000.000 0.000 1.340
84 252.00 1500.01 972 3348 0.000 0.000 0.000 1.000 10000.000 0.000 1.340
85 255.00 1500.01 972 3210 0.000 0.000 0.000 1.000 10000.000 0.000 1.340
86 258.00 1500.01 962 3296 0.000 0.000 0.000 1.000 10000.000 0.000 1.340
87 261.00 1500.01 1038 3266 0.000 0.000 0.000 1.000 10000.000 0.000 1.340
88 264.00 1500.01 987 3357 0.000 0.000 0.000 1.000 10000.000 0.000 1.340
89 267.00 1500.01 995 3163 0.000 0.000 0.000 1.000 10000.000 0.000 1.340
90 270.00 1500.01 993 3368 0.000 0.000 0.000 1.000 10000.000 0.000 1.340
91 273.00 1500.01 980 3277 0.000 0.000 0.000 1.000 10000.000 0.000 1.340
92 276.00 1500.01 980 3441 0.000 0.000 0.000 1.000 10000.000 0.000 1.340
93 279.00 1500.01 984 3354 0.000 0.000 0.000 1.000 10000.000 0.000 1.340
94 282.00 1500.01 1030 3294 0.000 0.000 0.000 1.000 10000.000 0.000 1.340
95 285.00 1500.01 1013 3269 0.000 0.000 0.000 1.000 10000.000 0.000 1.340
96 288.00 1500.01 1034 3293 0.000 0.000 0.000 1.000 10000.000 0.000 1.340
97 291.00 1500.01 1007 3374 0.000 0.000 0.000 1.000 10000.000 0.000 1.340
98 294.00 1500.01 1030 3375 0.000 0.000 0.000 1.000 10000.000 0.000 1.340
99 297.00 1500.01 946 3260 0.000 0.000 0.000 1.000 10000.000 0.000 1.340
100 300.00 1500.01 997 3311 0.000 0.000 0.000 1.000 10000.000 0.000 1.340
101 303.00 1500.01 993 3151 0.000 0.000 0.000 1.000 10000.000 0.000 1.340
102 306.00 1500.01 1013 3313 0.000 0.000 0.000 1.000 10000.000 0.000 1.340
103 309.00 1500.01 1006 3329 0.000 0.000 0.000 1.000 10000.000 0.000 1.340
104 312.00 1500.01 1008 3374 0.000 0.000 0.000 1.000 10000.000 0.000 1.340
105 315.00 1500.01 958 3274 0.000 0.000 0.000 1.000 10000.000 0.000 1.340
106 318.00 1500.01 1026 3345 0.000 0.000 0.000 1.000 10000.000 0.000 1.340
107 321.00 1500.01 1019 3319 0.000 0.000 0.000 1.000 10000.000 0.000 1.340
108 324.00 1500.01 977 3382 0.000 0.000 0.000 1.000 10000.000 0.000 1.340
109 327.00 1500.01 963 3268 0.000 0.000 0.000 1.000 10000.000 0.000 1.340
110 330.00 1500.01 939 3429 0.000 0.000 0.000 1.000 10000.000 0.000 1.340
111 333.00 1500.01 945 3234 0.000 0.000 0.000 1.000 10000.000 0.000 1.340
112 336.00 1500.01 991 3272 0.000 0.000 0.000 1.000 10000.000 0.000 1.340
113 339.00 1500.01 1025 3251 0.000 0.000 0.000 1.000 10000.000 0.000 1.340
114 342.00 1500.01 962 3358 0.000 0.000 0.000 1.000 10000.000 0.000 1.340
115 345.00 1500.01 950 3281 0.000 0.000 0.000 1.000 10000.000 0.000 1.340
116 348.00 1500.01 985 3249 0.000 0.000 0.000 1.000 10000.000 0.000 1.340
117 351.00 1500.01 1043 3316 0.000 0.000 0.000 1.000 10000.000 0.000 1.340
118 354.00 1500.01 974 3342 0.000 0.000 0.000 1.000 10000.000 0.000 1.340
119 357.00 1500.01 1039 3161 0.000 0.000 0.000 1.000 10000.000 0.000 1.340
120 360.00 1500.01 945 3325 0.000 0.000 0.000 1.000 10000.000 0.000 1.340
121 363.00 1500.01 1017 3301 0.000 0.000 0.000 1.000 10000.000 0.000 1.340
122 366.00 1500.01 1017 3376 0.000 0.000 0.000 1.000 10000.000 0.000 1.340
123 369.00 1500.01 991 3315 0.000 0.000 0.000 1.000 10000.000 0.000 1.340
124 372.00 1500.01 1012 3475 0.000 0.000 0.000 1.000 10000.000 0.000 1.340
125 375.00 1500.01 945 3309 0.000 0.000 0.000 1.000 10000.000 0.000 1.340
126 378.00 1500.01 947 3274 0.000 0.000 0.000 1.000 10000.000 0.000 1.340
127 381.00 1500.01 997 3310 0.000 0.000 0.000 1.000 10000.000 0.000 1.340
128 384.00 1500.01 1000 3316 0.000 0.000 0.000 1.000 10000.000 0.000 1.340
129 387.00 1500.01 1059 3191 0.000 0.000 0.000 1.000 10000.000 0.000 1.340
130 390.00 1500.01 1004 3396 0.000 0.000 0.000 1.000 10000.000 0.000 1.340
131 393.00 1500.01 947 3247 0.000 0.000 0.000 1.000 10000.000 0.000 1.340
132 396.00 1500.01 1006 3341 0.000 0.000 0.000 1.000 10000.000 0.000 1.340
133 399.00 1500.01 975 3202 0.000 0.000 0.000 1.000 10000.000 0.000 1.340
134 402.00 1500.01 1003 3269 0.000 0.000 0.000 1.000 10000.000 0.000 1.340
