# BinNR microsec tot-time (s)  O-Beam AUX Ampl_1(V) f_1(Hz) phase_1(deg) Ampl_2(V) f_2(Hz) phase_2(deg) chi(pos)
0 0.00 1500.01 516 1800 0.000 0.000 0.000 1.000 10000.000 0.000 -0.681
1 3.00 1500.01 1078 3545 0.000 0.000 0.000 1.000 10000.000 0.000 -0.681
2 6.00 1500.01 1066 3630 0.000 0.000 0.000 1.000 10000.000 0.000 -0.681
3 9.00 1500.01 1010 3578 0.000 0.000 0.000 1.000 10000.000 0.000 -0.681
4 12.00 1500.01 1034 3658 0.000 0.000 0.000 1.000 10000.000 0.000 -0.681
5 15.00 1500.01 1074 3750 0.000 0.000 0.000 1.000 10000.000 0.000 -0.681
6 18.00 1500.01 1052 3616 0.000 0.000 0.000 1.000 10000.000 0.000 -0.681
7 21.00 1500.01 1060 3587 0.000 0.000 0.000 1.000 10000.000 0.000 -0.681
8 24.00 1500.01 1087 3689 0.000 0.000 0.000 1.000 10000.000 0.000 -0.681
9 27.00 1500.01 1041 3531 0.000 0.000 0.000 1.000 10000.000 0.000 -0.681
10 30.00 1500.01 1061 3691 0.000 0.000 0.000 1.000 10000.000 0.000 -0.681
11 33.00 1500.01 1020 3490 0.000 0.000 0.000 1.000 10000.000 0.000 -0.681
12 36.00 1500.01 1072 3694 0.000 0.000 0.000 1.000 10000.000 0.000 -0.681
13 39.00 1500.01 1073 3466 0.000 0.000 0.000 1.000 10000.000 0.000 -0.681
14 42.00 1500.01 1039 3569 0.000 0.000 0.000 1.000 10000.000 0.000 -0.681
15 45.00 1500.01 1083 3625 0.000 0.000 0.000 1.000 10000.000 0.000 -0.681
16 48.00 1500.01 1041 3572 0.000 0.000 0.000 1.000 10000.000 0.000 -0.681
17 51.00 1500.01 1090 3704 0.000 0.000 0.000 1.000 10000.000 0.000 -0.681
18 54.00 1500.01 1034 3584 0.000 0.000 0.000 1.000 10000.000 0.000 -0.681
19 57.00 1500.01 1119 3585 0.000 0.000 0.000 1.000 10000.000 0.000 -0.681
20 60.00 1500.01 1082 3503 0.000 0.000 0.000 1.000 10000.000 0.000 -0.681
21 63.00 1500.01 1056 3485 0.000 0.000 0.000 1.000 10000.000 0.000 -0.681
22 66.00 1500.01 1047 3569 0.000 0.000 0.000 1.000 10000.000 0.000 -0.681
23 69.00 1500.01 1017 3536 0.000 0.000 0.000 1.000 10000.000 0.000 -0.681
24 72.00 1500.01 1106 3643 0.000 0.000 0.000 1.000 10000.000 0.000 -0.681
25 75.00 1500.01 1086 3705 0.000 0.000 0.000 1.000 10000.000 0.000 -0.681
26 78.00 1500.01 1037 3594 0.000 0.000 0.000 1.000 10000.000 0.000 -0.681
27 81.00 1500.01 1023 3638 0.000 0.000 0.000 1.000 10000.000 0.000 -0.681
28 84.00 1500.01 1038 3683 0.000 0.000 0.000 1.000 10000.000 0.000 -0.681
29 87.00 1500.01 1090 3536 0.000 0.000 0.000 1.000 10000.000 0.000 -0.681
30 90.00 1500.01 1095 3706 0.000 0.000 0.000 1.000 10000.000 0.000 -0.681
31 93.00 1500.01 1060 3492 0.000 0.000 0.000 1.000 10000.000 0.000 -0.681
32 96.00 1500.01 1063 3538 0.000 0.000 0.000 1.000 10000.000 0.000 -0.681
33 99.00 1500.01 1051 3571 0.000 0.000 0.000 1.000 10000.000 0.000 -0.681
34 102.00 1500.01 1050 3638 0.000 0.000 0.000 1.000 10000.000 0.000 -0.681
35 105.00 1500.01 1038 3557 0.000 0.000 0.000 1.000 10000.000 0.000 -0.681
36 108.00 1500.01 1045 3638 0.000 0.000 0.000 1.000 10000.000 0.000 -0.681
37 111.00 1500.01 1077 3589 0.000 0.000 0.000 1.000 10000.000 0.000 -0.681
38 114.00 1500.01 1082 3750 0.000 0.000 0.000 1.000 10000.000 0.000 -0.681
39 117.00 1500.01 1044 3550 0.000 0.000 0.000 1.000 10000.000 0.000 -0.681
40 120.00 1500.01 1057 3779 0.000 0.000 0.000 1.000 10000.000 0.000 -0.681
41 123.00 1500.01 1099 3682 0.000 0.000 0.000 1.000 10000.000 0.000 -0.681
42 126.00 1500.01 1047 3622 0.000 0.000 0.000 1.000 10000.000 0.000 -0.681
43 129.00 1500.01 1035 3509 0.000 0.000 0.000 1.000 10000.000 0.000 -0.681
44 132.00 1500.01 1076 3584 0.000 0.000 0.000 1.000 10000.000 0.000 -0.681
45 135.00 1500.01 1018 3554 0.000 0.000 0.000 1.000 10000.000 0.000 -0.681
46 138.00 1500.01 1045 3682 0.000 0.000 0.000 1.000 10000.000 0.000 -0.681
47 141.00 1500.01 1068 3544 0.000 0.000 0.000 1.000 10000.000 0.000 -0.681
48 144.00 1500.01 1081 3546 0.000 0.000 0.000 1.000 10000.000 0.000 -0.681
49 147.00 1500.01 1080 3599 0.000 0.000 0.000 1.000 10000.000 0.000 -0.681
50 150.00 1500.01 1033 3554 0.000 0.000 0.000 1.000 10000.000 0.000 -0.681
51 153.00 1500.01 1052 3513 0.000 0.000 0.000 1.000 10000.000 0.000 -0.681
52 156.00 1500.01 1066 3675 0.000 0.000 0.000 1.000 10000.000 0.000 -0.681
53 159.00 1500.01 1055 3547 0.000 0.000 0.000 1.000 10000.000 0.000 -0.681
54 162.00 1500.01 1063 3661 0.000 0.000 0.000 1.000 10000.000 0.000 -0.681
55 165.00 1500.01 1034 3663 0.000 0.000 0.000 1.000 10000.000 0.000 -0.681
56 168.00 1500.01 1037 3662 0.000 0.000 0.000 1.000 10000.000 0.000 -0.681
57 171.00 1500.01 1052 3518 0.000 0.000 0.000 1.000 10000.000 0.000 -0.681
58 174.00 1500.01 1075 3718 0.000 0.000 0.000 1.000 10000.000 0.000 -0.681
59 177.00 1500.01 1074 3634 0.000 0.000 0.000 1.000 10000.000 0.000 -0.681
60 180.00 1500.01 1041 3659 0.000 0.000 0.000 1.000 10000.000 0.000 -0.681
61 183.00 1500.01 1046 3618 0.000 0.000 0.000 1.000 10000.000 0.000 -0.681
62 186.00 1500.01 1044 3635 0.000 0.000 0.000 1.000 10000.000 0.000 -0.681
63 189.00 1500.01 1062 3657 0.000 0.000 0.000 1.000 10000.000 0.000 -0.681
64 192.00 1500.01 1058 3707 0.000 0.000 0.000 1.000 10000.000 0.000 -0.681
65 195.00 1500.01 1115 3564 0.000 0.000 0.000 1.000 10000.000 0.000 -0.681
66 198.00 1500.01 1068 3609 0.000 0.000 0.000 1.000 10000.000 0.000 -0.681
67 201.00 1500.01 1036 3496 0.000 0.000 0.000 1.000 10000.000 0.000 -0.681
68 204.00 1500.01 1099 3684 0.000 0.000 0.000 1.000 10000.000 0.000 -0.681
69 207.00 1500.01 1004 3504 0.000 0.000 0.000 1.000 10000.000 0.000 -0.681
70 210.00 1500.01 1074 3678 0.000 0.000 0.000 1.000 10000.000 0.000 -0.681
71 213.00 1500.01 1059 3673 0.000 0.000 0.000 1.000 10000.000 0.000 -0.681
72 216.00 1500.01 1107 3629 0.000 0.000 0.000 1.000 10000.000 0.000 -0.681
73 219.00 1500.01 1081 3676 0.000 0.000 0.000 1.000 10000.000 0.000 -0.681
74 222.00 1500.01 1063 3658 0.000 0.000 0.000 1.000 10000.000 0.000 -0.681
75 225.00 1500.01 1022 3705 0.000 0.000 0.000 1.000 10000.000 0.000 -0.681
76 228.00 1500.01 1075 3723 0.000 0.000 0.000 1.000 10000.000 0.000 -0.681
77 231.00 1500.01 1004 3560 0.000 0.000 0.000 1.000 10000.000 0.000 -0.681
78 234.00 1500.01 1039 3645 0.000 0.000 0.000 1.000 10000.000 0.000 -0.681
79 237.00 1500.01 1016 3498 0.000 0.000 0.000 1.000 10000.000 0.000 -0.681
80 240.00 1500.01 1039 3421 0.000 0.000 0.000 1.000 10000.000 0.000 -0.681
81 243.00 1500.01 1110 3509 0.000 0.000 0.000 1.000 10000.000 0.000 -0.681
82 246.00 1500.01 1088 3576 0.000 0.000 0.000 1.000 10000.000 0.000 -0.681
83 249.00 1500.01 1047 3479 0.000 0.000 0.000 1.000 10000.000 0.000 -0.681
84 252.00 1500.01 1096 3533 0.000 0.000 0.000 1.000 10000.000 0.000 -0.681
85 255.00 1500.01 1075 3483 0.000 0.000 0.000 1.000 10000.000 0.000 -0.681
86 258.00 1500.01 1057 3633 0.000 0.000 0.000 1.000 10000.000 0.000 -0.681
87 261.00 1500.01 1131 3476 0.000 0.000 0.000 1.000 10000.000 0.000 -0.681
88 264.00 1500.01 1059 3679 0.000 0.000 0.000 1.000 10000.000 0.000 -0.681
89 267.00 1500.01 1045 3605 0.000 0.000 0.000 1.000 10000.000 0.000 -0.681
90 270.00 1500.01 1057 3565 0.000 0.000 0.000 1.000 10000.000 0.000 -0.681
91 273.00 1500.01 1032 3597 0.000 0.000 0.000 1.000 10000.000 0.000 -0.681
92 276.00 1500.01 1028 3774 0.000 0.000 0.000 1.000 10000.000 0.000 -0.681
93 279.00 1500.01 1039 3620 0.000 0.000 0.000 1.000 10000.000 0.000 -0.681
94 282.00 1500.01 1075 3629 0.000 0.000 0.000 1.000 10000.000 0.000 -0.681
95 285.00 1500.01 1029 3568 0.000 0.000 0.000 1.000 10000.000 0.000 -0.681
96 288.00 1500.01 1069 3701 0.000 0.000 0.000 1.000 10000.000 0.000 -0.681
97 291.00 1500.01 1100 3572 0.000 0.000 0.000 1.000 10000.000 0.000 -0.681
98 294.00 1500.01 1117 3487 0.000 0.000 0.000 1.000 10000.000 0.000 -0.681
99 297.00 1500.01 1096 3494 0.000 0.000 0.000 1.000 10000.000 0.000 -0.681
100 300.00 1500.01 1115 3720 0.000 0.000 0.000 1.000 10000.000 0.000 -0.681
101 303.00 1500.01 1047 3618 0.000 0.000 0.000 1.000 10000.000 0.000 -0.681
102 306.00 1500.01 1080 3661 0.000 0.000 0.000 1.000 10000.000 0.000 -0.681
103 309.00 1500.01 992 3743 0.000 0.000 0.000 1.000 10000.000 0.000 -0.681
104 312.00 1500.01 1042 3644 0.000 0.000 0.000 1.000 10000.000 0.000 -0.681
105 315.00 1500.01 1036 3566 0.000 0.000 0.000 1.000 10000.000 0.000 -0.681
106 318.00 1500.01 1076 3678 0.000 0.000 0.000 1.000 10000.000 0.000 -0.681
107 321.00 1500.01 1078 3595 0.000 0.000 0.000 1.000 10000.000 0.000 -0.681
108 324.00 1500.01 1014 3567 0.000 0.000 0.000 1.000 10000.000 0.000 -0.681
109 327.00 1500.01 1067 3615 0.000 0.000 0.000 1.000 10000.000 0.000 -0.681
110 330.00 1500.01 1040 3651 0.000 0.000 0.000 1.000 10000.000 0.000 -0.681
111 333.00 1500.01 1071 3519 0.000 0.000 0.000 1.000 10000.000 0.000 -0.681
112 336.00 1500.01 1040 3627 0.000 0.000 0.000 1.000 10000.000 0.000 -0.681
113 339.00 1500.01 1050 3550 0.000 0.000 0.000 1.000 10000.000 0.000 -0.681
114 342.00 1500.01 1062 3492 0.000 0.000 0.000 1.000 10000.000 0.000 -0.681
115 345.00 1500.01 1072 3565 0.000 0.000 0.000 1.000 10000.000 0.000 -0.681
116 348.00 1500.01 1092 3501 0.000 0.000 0.000 1.000 10000.000 0.000 -0.681
117 351.00 1500.01 1058 3523 0.000 0.000 0.000 1.000 10000.000 0.000 -0.681
118 354.00 1500.01 1078 3531 0.000 0.000 0.000 1.000 10000.000 0.000 -0.681
119 357.00 1500.01 1058 3473 0.000 0.000 0.000 1.000 10000.000 0.000 -0.681
120 360.00 1500.01 1118 3626 0.000 0.000 0.000 1.000 10000.000 0.000 -0.681
121 363.00 1500.01 1062 3590 0.000 0.000 0.000 1.000 10000.000 0.000 -0.681
122 366.00 1500.01 1119 3613 0.000 0.000 0.000 1.000 10000.000 0.000 -0.681
123 369.00 1500.01 1068 3663 0.000 0.000 0.000 1.000 10000.000 0.000 -0.681
124 372.00 1500.01 1041 3697 0.000 0.000 0.000 1.000 10000.000 0.000 -0.681
125 375.00 1500.01 1044 3660 0.000 0.000 0.000 1.000 10000.000 0.000 -0.681
126 378.00 1500.01 1085 3616 0.000 0.000 0.000 1.000 10000.000 0.000 -0.681
127 381.00 1500.01 1060 3595 0.000 0.000 0.000 1.000 10000.000 0.000 -0.681
128 384.00 1500.01 1062 3648 0.000 0.000 0.000 1.000 10000.000 0.000 -0.681
129 387.00 1500.01 1082 3506 0.000 0.000 0.000 1.000 10000.000 0.000 -0.681
130 390.00 1500.01 1018 3634 0.000 0.000 0.000 1.000 10000.000 0.000 -0.681
131 393.00 1500.01 1107 3474 0.000 0.000 0.000 1.000 10000.000 0.000 -0.681
132 396.00 1500.01 1068 3641 0.000 0.000 0.000 1.000 10000.000 0.000 -0.681
133 399.00 1500.01 1053 3623 0.000 0.000 0.000 1.000 10000.000 0.000 -0.681
134 402.00 1500.01 1071 3553 0.000 0.000 0.000 1.000 10000.000 0.000 -0.681
