# BinNR microsec tot-time (s)  O-Beam AUX Ampl_1(V) f_1(Hz) phase_1(deg) Ampl_2(V) f_2(Hz) phase_2(deg) chi(pos)
0 0.00 1500.01 635 2062 0.000 0.000 0.000 1.000 10000.000 0.000 -0.330
1 3.00 1500.01 1295 4091 0.000 0.000 0.000 1.000 10000.000 0.000 -0.330
2 6.00 1500.01 1337 4203 0.000 0.000 0.000 1.000 10000.000 0.000 -0.330
3 9.00 1500.01 1285 4153 0.000 0.000 0.000 1.000 10000.000 0.000 -0.330
4 12.00 1500.01 1321 4254 0.000 0.000 0.000 1.000 10000.000 0.000 -0.330
5 15.00 1500.01 1316 4126 0.000 0.000 0.000 1.000 10000.000 0.000 -0.330
6 18.00 1500.01 1357 4143 0.000 0.000 0.000 1.000 10000.000 0.000 -0.330
7 21.00 1500.01 1335 4096 0.000 0.000 0.000 1.000 10000.000 0.000 -0.330
8 24.00 1500.01 1305 4159 0.000 0.000 0.000 1.000 10000.000 0.000 -0.330
9 27.00 1500.01 1333 4011 0.000 0.000 0.000 1.000 10000.000 0.000 -0.330
10 30.00 1500.01 1282 4224 0.000 0.000 0.000 1.000 10000.000 0.000 -0.330
11 33.00 1500.01 1291 3976 0.000 0.000 0.000 1.000 10000.000 0.000 -0.330
12 36.00 1500.01 1298 4130 0.000 0.000 0.000 1.000 10000.000 0.000 -0.330
13 39.00 1500.01 1314 3974 0.000 0.000 0.000 1.000 10000.000 0.000 -0.330
14 42.00 1500.01 1262 4045 0.000 0.000 0.000 1.000 10000.000 0.000 -0.330
15 45.00 1500.01 1342 3982 0.000 0.000 0.000 1.000 10000.000 0.000 -0.330
16 48.00 1500.01 1340 4163 0.000 0.000 0.000 1.000 10000.000 0.000 -0.330
17 51.00 1500.01 1262 4067 0.000 0.000 0.000 1.000 10000.000 0.000 -0.330
18 54.00 1500.01 1352 4094 0.000 0.000 0.000 1.000 10000.000 0.000 -0.330
19 57.00 1500.01 1298 4083 0.000 0.000 0.000 1.000 10000.000 0.000 -0.330
20 60.00 1500.01 1309 4096 0.000 0.000 0.000 1.000 10000.000 0.000 -0.330
21 63.00 1500.01 1294 4081 0.000 0.000 0.000 1.000 10000.000 0.000 -0.330
22 66.00 1500.01 1351 4146 0.000 0.000 0.000 1.000 10000.000 0.000 -0.330
23 69.00 1500.01 1289 4121 0.000 0.000 0.000 1.000 10000.000 0.000 -0.330
24 72.00 1500.01 1331 4220 0.000 0.000 0.000 1.000 10000.000 0.000 -0.330
25 75.00 1500.01 1360 4056 0.000 0.000 0.000 1.000 10000.000 0.000 -0.330
26 78.00 1500.01 1344 4165 0.000 0.000 0.000 1.000 10000.000 0.000 -0.330
27 81.00 1500.01 1340 4081 0.000 0.000 0.000 1.000 10000.000 0.000 -0.330
28 84.00 1500.01 1319 4208 0.000 0.000 0.000 1.000 10000.000 0.000 -0.330
29 87.00 1500.01 1253 4093 0.000 0.000 0.000 1.000 10000.000 0.000 -0.330
30 90.00 1500.01 1321 4185 0.000 0.000 0.000 1.000 10000.000 0.000 -0.330
31 93.00 1500.01 1289 3940 0.000 0.000 0.000 1.000 10000.000 0.000 -0.330
32 96.00 1500.01 1319 4149 0.000 0.000 0.000 1.000 10000.000 0.000 -0.330
33 99.00 1500.01 1330 4031 0.000 0.000 0.000 1.000 10000.000 0.000 -0.330
34 102.00 1500.01 1268 4064 0.000 0.000 0.000 1.000 10000.000 0.000 -0.330
35 105.00 1500.01 1262 4147 0.000 0.000 0.000 1.000 10000.000 0.000 -0.330
36 108.00 1500.01 1331 4082 0.000 0.000 0.000 1.000 10000.000 0.000 -0.330
37 111.00 1500.01 1256 4187 0.000 0.000 0.000 1.000 10000.000 0.000 -0.330
38 114.00 1500.01 1281 4268 0.000 0.000 0.000 1.000 10000.000 0.000 -0.330
39 117.00 1500.01 1354 4133 0.000 0.000 0.000 1.000 10000.000 0.000 -0.330
40 120.00 1500.01 1282 4304 0.000 0.000 0.000 1.000 10000.000 0.000 -0.330
41 123.00 1500.01 1300 4182 0.000 0.000 0.000 1.000 10000.000 0.000 -0.330
42 126.00 1500.01 1308 4267 0.000 0.000 0.000 1.000 10000.000 0.000 -0.330
43 129.00 1500.01 1311 4017 0.000 0.000 0.000 1.000 10000.000 0.000 -0.330
44 132.00 1500.01 1352 4201 0.000 0.000 0.000 1.000 10000.000 0.000 -0.330
45 135.00 1500.01 1247 4130 0.000 0.000 0.000 1.000 10000.000 0.000 -0.330
46 138.00 1500.01 1287 4063 0.000 0.000 0.000 1.000 10000.000 0.000 -0.330
47 141.00 1500.01 1298 4130 0.000 0.000 0.000 1.000 10000.000 0.000 -0.330
48 144.00 1500.01 1252 4071 0.000 0.000 0.000 1.000 10000.000 0.000 -0.330
49 147.00 1500.01 1242 4008 0.000 0.000 0.000 1.000 10000.000 0.000 -0.330
50 150.00 1500.01 1270 4009 0.000 0.000 0.000 1.000 10000.000 0.000 -0.330
51 153.00 1500.01 1289 3940 0.000 0.000 0.000 1.000 10000.000 0.000 -0.330
52 156.00 1500.01 1367 4065 0.000 0.000 0.000 1.000 10000.000 0.000 -0.330
53 159.00 1500.01 1226 4088 0.000 0.000 0.000 1.000 10000.000 0.000 -0.330
54 162.00 1500.01 1356 4146 0.000 0.000 0.000 1.000 10000.000 0.000 -0.330
55 165.00 1500.01 1323 4048 0.000 0.000 0.000 1.000 10000.000 0.000 -0.330
56 168.00 1500.01 1347 4253 0.000 0.000 0.000 1.000 10000.000 0.000 -0.330
57 171.00 1500.01 1298 4190 0.000 0.000 0.000 1.000 10000.000 0.000 -0.330
58 174.00 1500.01 1324 4289 0.000 0.000 0.000 1.000 10000.000 0.000 -0.330
59 177.00 1500.01 1308 4131 0.000 0.000 0.000 1.000 10000.000 0.000 -0.330
60 180.00 1500.01 1309 4211 0.000 0.000 0.000 1.000 10000.000 0.000 -0.330
61 183.00 1500.01 1289 4145 0.000 0.000 0.000 1.000 10000.000 0.000 -0.330
62 186.00 1500.01 1364 4079 0.000 0.000 0.000 1.000 10000.000 0.000 -0.330
63 189.00 1500.01 1276 4130 0.000 0.000 0.000 1.000 10000.000 0.000 -0.330
64 192.00 1500.01 1295 4232 0.000 0.000 0.000 1.000 10000.000 0.000 -0.330
65 195.00 1500.01 1233 4096 0.000 0.000 0.000 1.000 10000.000 0.000 -0.330
66 198.00 1500.01 1337 4125 0.000 0.000 0.000 1.000 10000.000 0.000 -0.330
67 201.00 1500.01 1261 4129 0.000 0.000 0.000 1.000 10000.000 0.000 -0.330
68 204.00 1500.01 1321 4104 0.000 0.000 0.000 1.000 10000.000 0.000 -0.330
69 207.00 1500.01 1289 3982 0.000 0.000 0.000 1.000 10000.000 0.000 -0.330
70 210.00 1500.01 1290 4212 0.000 0.000 0.000 1.000 10000.000 0.000 -0.330
71 213.00 1500.01 1266 4048 0.000 0.000 0.000 1.000 10000.000 0.000 -0.330
72 216.00 1500.01 1358 4239 0.000 0.000 0.000 1.000 10000.000 0.000 -0.330
73 219.00 1500.01 1286 4190 0.000 0.000 0.000 1.000 10000.000 0.000 -0.330
74 222.00 1500.01 1375 4145 0.000 0.000 0.000 1.000 10000.000 0.000 -0.330
75 225.00 1500.01 1270 4097 0.000 0.000 0.000 1.000 10000.000 0.000 -0.330
76 228.00 1500.01 1313 4145 0.000 0.000 0.000 1.000 10000.000 0.000 -0.330
77 231.00 1500.01 1277 4046 0.000 0.000 0.000 1.000 10000.000 0.000 -0.330
78 234.00 1500.01 1371 4022 0.000 0.000 0.000 1.000 10000.000 0.000 -0.330
79 237.00 1500.01 1309 4039 0.000 0.000 0.000 1.000 10000.000 0.000 -0.330
80 240.00 1500.01 1320 4108 0.000 0.000 0.000 1.000 10000.000 0.000 -0.330
81 243.00 1500.01 1278 4008 0.000 0.000 0.000 1.000 10000.000 0.000 -0.330
82 246.00 1500.01 1280 4100 0.000 0.000 0.000 1.000 10000.000 0.000 -0.330
83 249.00 1500.01 1284 4032 0.000 0.000 0.000 1.000 10000.000 0.000 -0.330
84 252.00 1500.01 1296 3965 0.000 0.000 0.000 1.000 10000.000 0.000 -0.330
85 255.00 1500.01 1262 4022 0.000 0.000 0.000 1.000 10000.000 0.000 -0.330
86 258.00 1500.01 1299 4180 0.000 0.000 0.000 1.000 10000.000 0.000 -0.330
87 261.00 1500.01 1276 4121 0.000 0.000 0.000 1.000 10000.000 0.000 -0.330
88 264.00 1500.01 1289 4214 0.000 0.000 0.000 1.000 10000.000 0.000 -0.330
89 267.00 1500.01 1286 4063 0.000 0.000 0.000 1.000 10000.000 0.000 -0.330
90 270.00 1500.01 1304 4115 0.000 0.000 0.000 1.000 10000.000 0.000 -0.330
91 273.00 1500.01 1303 4180 0.000 0.000 0.000 1.000 10000.000 0.000 -0.330
92 276.00 1500.01 1317 4131 0.000 0.000 0.000 1.000 10000.000 0.000 -0.330
93 279.00 1500.01 1349 4032 0.000 0.000 0.000 1.000 10000.000 0.000 -0.330
94 282.00 1500.01 1359 4155 0.000 0.000 0.000 1.000 10000.000 0.000 -0.330
95 285.00 1500.01 1302 4105 0.000 0.000 0.000 1.000 10000.000 0.000 -0.330
96 288.00 1500.01 1280 4168 0.000 0.000 0.000 1.000 10000.000 0.000 -0.330
97 291.00 1500.01 1286 4107 0.000 0.000 0.000 1.000 10000.000 0.000 -0.330
98 294.00 1500.01 1299 4072 0.000 0.000 0.000 1.000 10000.000 0.000 -0.330
99 297.00 1500.01 1320 4013 0.000 0.000 0.000 1.000 10000.000 0.000 -0.330
100 300.00 1500.01 1325 4085 0.000 0.000 0.000 1.000 10000.000 0.000 -0.330
101 303.00 1500.01 1318 4103 0.000 0.000 0.000 1.000 10000.000 0.000 -0.330
102 306.00 1500.01 1286 4178 0.000 0.000 0.000 1.000 10000.000 0.000 -0.330
103 309.00 1500.01 1349 4015 0.000 0.000 0.000 1.000 10000.000 0.000 -0.330
104 312.00 1500.01 1328 4171 0.000 0.000 0.000 1.000 10000.000 0.000 -0.330
105 315.00 1500.01 1273 4098 0.000 0.000 0.000 1.000 10000.000 0.000 -0.330
106 318.00 1500.01 1353 4178 0.000 0.000 0.000 1.000 10000.000 0.000 -0.330
107 321.00 1500.01 1307 4251 0.000 0.000 0.000 1.000 10000.000 0.000 -0.330
108 324.00 1500.01 1336 4230 0.000 0.000 0.000 1.000 10000.000 0.000 -0.330
109 327.00 1500.01 1285 4150 0.000 0.000 0.000 1.000 10000.000 0.000 -0.330
110 330.00 1500.01 1293 4161 0.000 0.000 0.000 1.000 10000.000 0.000 -0.330
111 333.00 1500.01 1249 3972 0.000 0.000 0.000 1.000 10000.000 0.000 -0.330
112 336.00 1500.01 1303 4083 0.000 0.000 0.000 1.000 10000.000 0.000 -0.330
113 339.00 1500.01 1299 4167 0.000 0.000 0.000 1.000 10000.000 0.000 -0.330
114 342.00 1500.01 1276 4126 0.000 0.000 0.000 1.000 10000.000 0.000 -0.330
115 345.00 1500.01 1286 3927 0.000 0.000 0.000 1.000 10000.000 0.000 -0.330
116 348.00 1500.01 1282 4070 0.000 0.000 0.000 1.000 10000.000 0.000 -0.330
117 351.00 1500.01 1286 3875 0.000 0.000 0.000 1.000 10000.000 0.000 -0.330
118 354.00 1500.01 1347 4113 0.000 0.000 0.000 1.000 10000.000 0.000 -0.330
119 357.00 1500.01 1331 4028 0.000 0.000 0.000 1.000 10000.000 0.000 -0.330
120 360.00 1500.01 1299 4109 0.000 0.000 0.000 1.000 10000.000 0.000 -0.330
121 363.00 1500.01 1364 4094 0.000 0.000 0.000 1.000 10000.000 0.000 -0.330
122 366.00 1500.01 1327 4129 0.000 0.000 0.000 1.000 10000.000 0.000 -0.330
123 369.00 1500.01 1304 4093 0.000 0.000 0.000 1.000 10000.000 0.000 -0.330
124 372.00 1500.01 1261 4224 0.000 0.000 0.000 1.000 10000.000 0.000 -0.330
125 375.00 1500.01 1258 4185 0.000 0.000 0.000 1.000 10000.000 0.000 -0.330
126 378.00 1500.01 1366 4190 0.000 0.000 0.000 1.000 10000.000 0.000 -0.330
127 381.00 1500.01 1330 4099 0.000 0.000 0.000 1.000 10000.000 0.000 -0.330
128 384.00 1500.01 1261 4011 0.000 0.000 0.000 1.000 10000.000 0.000 -0.330
129 387.00 1500.01 1241 4096 0.000 0.000 0.000 1.000 10000.000 0.000 -0.330
130 390.00 1500.01 1306 4054 0.000 0.000 0.000 1.000 10000.000 0.000 -0.330
131 393.00 1500.01 1259 4105 0.000 0.000 0.000 1.000 10000.000 0.000 -0.330
132 396.00 1500.01 1289 4182 0.000 0.000 0.000 1.000 10000.000 0.000 -0.330
133 399.00 1500.01 1294 4095 0.000 0.000 0.000 1.000 10000.000 0.000 -0.330
134 402.00 1500.01 1309 4084 0.000 0.000 0.000 1.000 10000.000 0.000 -0.330
