# BinNR microsec tot-time (s)  O-Beam AUX Ampl(V) f(Hz) phase(deg) chi(pos)
0 0.00 1200.02 64 93 1.100 10000.000 0.000 -1.505
1 3.00 1200.02 123 163 1.100 10000.000 0.000 -1.505
2 6.00 1200.02 112 186 1.100 10000.000 0.000 -1.505
3 9.00 1200.02 103 160 1.100 10000.000 0.000 -1.505
4 12.00 1200.02 101 165 1.100 10000.000 0.000 -1.505
5 15.00 1200.02 92 206 1.100 10000.000 0.000 -1.505
6 18.00 1200.02 123 197 1.100 10000.000 0.000 -1.505
7 21.00 1200.02 131 190 1.100 10000.000 0.000 -1.505
8 24.00 1200.02 141 203 1.100 10000.000 0.000 -1.505
9 27.00 1200.02 130 177 1.100 10000.000 0.000 -1.505
10 30.00 1200.02 130 187 1.100 10000.000 0.000 -1.505
11 33.00 1200.02 111 153 1.100 10000.000 0.000 -1.505
12 36.00 1200.02 102 169 1.100 10000.000 0.000 -1.505
13 39.00 1200.02 121 172 1.100 10000.000 0.000 -1.505
14 42.00 1200.02 122 155 1.100 10000.000 0.000 -1.505
15 45.00 1200.02 110 162 1.100 10000.000 0.000 -1.505
16 48.00 1200.02 143 163 1.100 10000.000 0.000 -1.505
17 51.00 1200.02 112 173 1.100 10000.000 0.000 -1.505
18 54.00 1200.02 124 149 1.100 10000.000 0.000 -1.505
19 57.00 1200.02 112 152 1.100 10000.000 0.000 -1.505
20 60.00 1200.02 119 171 1.100 10000.000 0.000 -1.505
21 63.00 1200.02 133 177 1.100 10000.000 0.000 -1.505
22 66.00 1200.02 109 161 1.100 10000.000 0.000 -1.505
23 69.00 1200.02 94 148 1.100 10000.000 0.000 -1.505
24 72.00 1200.02 111 166 1.100 10000.000 0.000 -1.505
25 75.00 1200.02 106 154 1.100 10000.000 0.000 -1.505
26 78.00 1200.02 144 178 1.100 10000.000 0.000 -1.505
27 81.00 1200.02 117 150 1.100 10000.000 0.000 -1.505
28 84.00 1200.02 104 151 1.100 10000.000 0.000 -1.505
29 87.00 1200.02 120 183 1.100 10000.000 0.000 -1.505
30 90.00 1200.02 119 175 1.100 10000.000 0.000 -1.505
31 93.00 1200.02 96 170 1.100 10000.000 0.000 -1.505
32 96.00 1200.02 122 189 1.100 10000.000 0.000 -1.505
33 99.00 1200.02 122 178 1.100 10000.000 0.000 -1.505
34 102.00 1200.02 124 180 1.100 10000.000 0.000 -1.505
35 105.00 1200.02 114 180 1.100 10000.000 0.000 -1.505
36 108.00 1200.02 125 194 1.100 10000.000 0.000 -1.505
37 111.00 1200.02 100 182 1.100 10000.000 0.000 -1.505
38 114.00 1200.02 145 172 1.100 10000.000 0.000 -1.505
39 117.00 1200.02 94 184 1.100 10000.000 0.000 -1.505
40 120.00 1200.02 106 172 1.100 10000.000 0.000 -1.505
41 123.00 1200.02 96 160 1.100 10000.000 0.000 -1.505
42 126.00 1200.02 103 169 1.100 10000.000 0.000 -1.505
43 129.00 1200.02 116 157 1.100 10000.000 0.000 -1.505
44 132.00 1200.02 114 184 1.100 10000.000 0.000 -1.505
45 135.00 1200.02 102 180 1.100 10000.000 0.000 -1.505
46 138.00 1200.02 112 168 1.100 10000.000 0.000 -1.505
47 141.00 1200.02 111 144 1.100 10000.000 0.000 -1.505
48 144.00 1200.02 125 160 1.100 10000.000 0.000 -1.505
49 147.00 1200.02 125 179 1.100 10000.000 0.000 -1.505
50 150.00 1200.02 105 142 1.100 10000.000 0.000 -1.505
51 153.00 1200.02 91 154 1.100 10000.000 0.000 -1.505
52 156.00 1200.02 122 162 1.100 10000.000 0.000 -1.505
53 159.00 1200.02 130 158 1.100 10000.000 0.000 -1.505
54 162.00 1200.02 122 153 1.100 10000.000 0.000 -1.505
55 165.00 1200.02 110 136 1.100 10000.000 0.000 -1.505
56 168.00 1200.02 130 180 1.100 10000.000 0.000 -1.505
57 171.00 1200.02 91 152 1.100 10000.000 0.000 -1.505
58 174.00 1200.02 119 165 1.100 10000.000 0.000 -1.505
59 177.00 1200.02 115 161 1.100 10000.000 0.000 -1.505
60 180.00 1200.02 97 153 1.100 10000.000 0.000 -1.505
61 183.00 1200.02 105 159 1.100 10000.000 0.000 -1.505
62 186.00 1200.02 111 162 1.100 10000.000 0.000 -1.505
63 189.00 1200.02 111 174 1.100 10000.000 0.000 -1.505
64 192.00 1200.02 114 161 1.100 10000.000 0.000 -1.505
65 195.00 1200.02 106 163 1.100 10000.000 0.000 -1.505
66 198.00 1200.02 127 184 1.100 10000.000 0.000 -1.505
67 201.00 1200.02 111 180 1.100 10000.000 0.000 -1.505
68 204.00 1200.02 93 166 1.100 10000.000 0.000 -1.505
69 207.00 1200.02 110 177 1.100 10000.000 0.000 -1.505
70 210.00 1200.02 105 190 1.100 10000.000 0.000 -1.505
71 213.00 1200.02 107 170 1.100 10000.000 0.000 -1.505
72 216.00 1200.02 99 173 1.100 10000.000 0.000 -1.505
73 219.00 1200.02 125 166 1.100 10000.000 0.000 -1.505
74 222.00 1200.02 106 178 1.100 10000.000 0.000 -1.505
75 225.00 1200.02 105 190 1.100 10000.000 0.000 -1.505
76 228.00 1200.02 110 186 1.100 10000.000 0.000 -1.505
77 231.00 1200.02 109 147 1.100 10000.000 0.000 -1.505
78 234.00 1200.02 111 179 1.100 10000.000 0.000 -1.505
79 237.00 1200.02 113 168 1.100 10000.000 0.000 -1.505
80 240.00 1200.02 103 164 1.100 10000.000 0.000 -1.505
81 243.00 1200.02 103 161 1.100 10000.000 0.000 -1.505
82 246.00 1200.02 128 165 1.100 10000.000 0.000 -1.505
83 249.00 1200.02 106 165 1.100 10000.000 0.000 -1.505
84 252.00 1200.02 113 189 1.100 10000.000 0.000 -1.505
85 255.00 1200.02 119 169 1.100 10000.000 0.000 -1.505
86 258.00 1200.02 106 154 1.100 10000.000 0.000 -1.505
87 261.00 1200.02 109 156 1.100 10000.000 0.000 -1.505
88 264.00 1200.02 121 140 1.100 10000.000 0.000 -1.505
89 267.00 1200.02 114 158 1.100 10000.000 0.000 -1.505
90 270.00 1200.02 124 177 1.100 10000.000 0.000 -1.505
91 273.00 1200.02 123 162 1.100 10000.000 0.000 -1.505
92 276.00 1200.02 102 169 1.100 10000.000 0.000 -1.505
93 279.00 1200.02 101 163 1.100 10000.000 0.000 -1.505
94 282.00 1200.02 115 157 1.100 10000.000 0.000 -1.505
95 285.00 1200.02 128 158 1.100 10000.000 0.000 -1.505
96 288.00 1200.02 133 166 1.100 10000.000 0.000 -1.505
97 291.00 1200.02 100 133 1.100 10000.000 0.000 -1.505
98 294.00 1200.02 117 142 1.100 10000.000 0.000 -1.505
99 297.00 1200.02 119 159 1.100 10000.000 0.000 -1.505
100 300.00 1200.02 95 119 1.100 10000.000 0.000 -1.505
