# BinNR microsec tot-time (s)  O-Beam AUX Ampl(V) f(Hz) phase(deg) chi(pos)
0 0.00 1200.01 75 202 1.100 10000.000 0.000 -1.296
1 3.00 1200.01 153 408 1.100 10000.000 0.000 -1.296
2 6.00 1200.01 154 432 1.100 10000.000 0.000 -1.296
3 9.00 1200.01 125 394 1.100 10000.000 0.000 -1.296
4 12.00 1200.01 153 406 1.100 10000.000 0.000 -1.296
5 15.00 1200.01 144 399 1.100 10000.000 0.000 -1.296
6 18.00 1200.01 130 422 1.100 10000.000 0.000 -1.296
7 21.00 1200.01 147 388 1.100 10000.000 0.000 -1.296
8 24.00 1200.01 131 401 1.100 10000.000 0.000 -1.296
9 27.00 1200.01 134 374 1.100 10000.000 0.000 -1.296
10 30.00 1200.01 146 349 1.100 10000.000 0.000 -1.296
11 33.00 1200.01 129 357 1.100 10000.000 0.000 -1.296
12 36.00 1200.01 132 381 1.100 10000.000 0.000 -1.296
13 39.00 1200.01 126 357 1.100 10000.000 0.000 -1.296
14 42.00 1200.01 164 361 1.100 10000.000 0.000 -1.296
15 45.00 1200.01 124 361 1.100 10000.000 0.000 -1.296
16 48.00 1200.01 123 356 1.100 10000.000 0.000 -1.296
17 51.00 1200.01 131 344 1.100 10000.000 0.000 -1.296
18 54.00 1200.01 133 346 1.100 10000.000 0.000 -1.296
19 57.00 1200.01 121 360 1.100 10000.000 0.000 -1.296
20 60.00 1200.01 138 361 1.100 10000.000 0.000 -1.296
21 63.00 1200.01 123 363 1.100 10000.000 0.000 -1.296
22 66.00 1200.01 121 368 1.100 10000.000 0.000 -1.296
23 69.00 1200.01 120 339 1.100 10000.000 0.000 -1.296
24 72.00 1200.01 132 393 1.100 10000.000 0.000 -1.296
25 75.00 1200.01 112 386 1.100 10000.000 0.000 -1.296
26 78.00 1200.01 141 382 1.100 10000.000 0.000 -1.296
27 81.00 1200.01 140 349 1.100 10000.000 0.000 -1.296
28 84.00 1200.01 116 377 1.100 10000.000 0.000 -1.296
29 87.00 1200.01 132 386 1.100 10000.000 0.000 -1.296
30 90.00 1200.01 156 423 1.100 10000.000 0.000 -1.296
31 93.00 1200.01 147 381 1.100 10000.000 0.000 -1.296
32 96.00 1200.01 153 424 1.100 10000.000 0.000 -1.296
33 99.00 1200.01 125 383 1.100 10000.000 0.000 -1.296
34 102.00 1200.01 152 407 1.100 10000.000 0.000 -1.296
35 105.00 1200.01 137 407 1.100 10000.000 0.000 -1.296
36 108.00 1200.01 146 398 1.100 10000.000 0.000 -1.296
37 111.00 1200.01 143 403 1.100 10000.000 0.000 -1.296
38 114.00 1200.01 136 441 1.100 10000.000 0.000 -1.296
39 117.00 1200.01 131 439 1.100 10000.000 0.000 -1.296
40 120.00 1200.01 153 400 1.100 10000.000 0.000 -1.296
41 123.00 1200.01 159 433 1.100 10000.000 0.000 -1.296
42 126.00 1200.01 138 412 1.100 10000.000 0.000 -1.296
43 129.00 1200.01 124 396 1.100 10000.000 0.000 -1.296
44 132.00 1200.01 157 411 1.100 10000.000 0.000 -1.296
45 135.00 1200.01 135 357 1.100 10000.000 0.000 -1.296
46 138.00 1200.01 131 391 1.100 10000.000 0.000 -1.296
47 141.00 1200.01 138 353 1.100 10000.000 0.000 -1.296
48 144.00 1200.01 136 360 1.100 10000.000 0.000 -1.296
49 147.00 1200.01 128 348 1.100 10000.000 0.000 -1.296
50 150.00 1200.01 115 364 1.100 10000.000 0.000 -1.296
51 153.00 1200.01 127 342 1.100 10000.000 0.000 -1.296
52 156.00 1200.01 123 382 1.100 10000.000 0.000 -1.296
53 159.00 1200.01 119 389 1.100 10000.000 0.000 -1.296
54 162.00 1200.01 132 369 1.100 10000.000 0.000 -1.296
55 165.00 1200.01 114 362 1.100 10000.000 0.000 -1.296
56 168.00 1200.01 137 360 1.100 10000.000 0.000 -1.296
57 171.00 1200.01 134 349 1.100 10000.000 0.000 -1.296
58 174.00 1200.01 123 330 1.100 10000.000 0.000 -1.296
59 177.00 1200.01 128 371 1.100 10000.000 0.000 -1.296
60 180.00 1200.01 135 383 1.100 10000.000 0.000 -1.296
61 183.00 1200.01 133 421 1.100 10000.000 0.000 -1.296
62 186.00 1200.01 133 392 1.100 10000.000 0.000 -1.296
63 189.00 1200.01 141 421 1.100 10000.000 0.000 -1.296
64 192.00 1200.01 145 393 1.100 10000.000 0.000 -1.296
65 195.00 1200.01 135 419 1.100 10000.000 0.000 -1.296
66 198.00 1200.01 142 404 1.100 10000.000 0.000 -1.296
67 201.00 1200.01 122 387 1.100 10000.000 0.000 -1.296
68 204.00 1200.01 132 452 1.100 10000.000 0.000 -1.296
69 207.00 1200.01 159 434 1.100 10000.000 0.000 -1.296
70 210.00 1200.01 143 398 1.100 10000.000 0.000 -1.296
71 213.00 1200.01 130 413 1.100 10000.000 0.000 -1.296
72 216.00 1200.01 133 417 1.100 10000.000 0.000 -1.296
73 219.00 1200.01 139 444 1.100 10000.000 0.000 -1.296
74 222.00 1200.01 130 424 1.100 10000.000 0.000 -1.296
75 225.00 1200.01 144 372 1.100 10000.000 0.000 -1.296
76 228.00 1200.01 152 403 1.100 10000.000 0.000 -1.296
77 231.00 1200.01 145 376 1.100 10000.000 0.000 -1.296
78 234.00 1200.01 139 376 1.100 10000.000 0.000 -1.296
79 237.00 1200.01 147 371 1.100 10000.000 0.000 -1.296
80 240.00 1200.01 121 371 1.100 10000.000 0.000 -1.296
81 243.00 1200.01 137 388 1.100 10000.000 0.000 -1.296
82 246.00 1200.01 133 343 1.100 10000.000 0.000 -1.296
83 249.00 1200.01 140 400 1.100 10000.000 0.000 -1.296
84 252.00 1200.01 152 366 1.100 10000.000 0.000 -1.296
85 255.00 1200.01 145 353 1.100 10000.000 0.000 -1.296
86 258.00 1200.01 123 371 1.100 10000.000 0.000 -1.296
87 261.00 1200.01 124 359 1.100 10000.000 0.000 -1.296
88 264.00 1200.01 154 356 1.100 10000.000 0.000 -1.296
89 267.00 1200.01 121 363 1.100 10000.000 0.000 -1.296
90 270.00 1200.01 115 348 1.100 10000.000 0.000 -1.296
91 273.00 1200.01 131 392 1.100 10000.000 0.000 -1.296
92 276.00 1200.01 131 372 1.100 10000.000 0.000 -1.296
93 279.00 1200.01 122 368 1.100 10000.000 0.000 -1.296
94 282.00 1200.01 128 349 1.100 10000.000 0.000 -1.296
95 285.00 1200.01 136 389 1.100 10000.000 0.000 -1.296
96 288.00 1200.01 140 388 1.100 10000.000 0.000 -1.296
97 291.00 1200.01 143 385 1.100 10000.000 0.000 -1.296
98 294.00 1200.01 146 449 1.100 10000.000 0.000 -1.296
99 297.00 1200.01 156 427 1.100 10000.000 0.000 -1.296
100 300.00 1200.01 115 330 1.100 10000.000 0.000 -1.296
