# BinNR microsec tot-time (s)  O-Beam AUX Ampl(V) f(Hz) phase(deg) chi(pos)
0 0.00 1200.01 194 642 1.100 10000.000 0.000 1.285
1 3.00 1200.01 396 1257 1.100 10000.000 0.000 1.285
2 6.00 1200.01 405 1251 1.100 10000.000 0.000 1.285
3 9.00 1200.01 382 1247 1.100 10000.000 0.000 1.285
4 12.00 1200.01 410 1307 1.100 10000.000 0.000 1.285
5 15.00 1200.01 385 1289 1.100 10000.000 0.000 1.285
6 18.00 1200.01 399 1296 1.100 10000.000 0.000 1.285
7 21.00 1200.01 408 1218 1.100 10000.000 0.000 1.285
8 24.00 1200.01 410 1218 1.100 10000.000 0.000 1.285
9 27.00 1200.01 408 1257 1.100 10000.000 0.000 1.285
10 30.00 1200.01 385 1269 1.100 10000.000 0.000 1.285
11 33.00 1200.01 405 1227 1.100 10000.000 0.000 1.285
12 36.00 1200.01 389 1216 1.100 10000.000 0.000 1.285
13 39.00 1200.01 402 1181 1.100 10000.000 0.000 1.285
14 42.00 1200.01 389 1260 1.100 10000.000 0.000 1.285
15 45.00 1200.01 377 1217 1.100 10000.000 0.000 1.285
16 48.00 1200.01 417 1236 1.100 10000.000 0.000 1.285
17 51.00 1200.01 377 1143 1.100 10000.000 0.000 1.285
18 54.00 1200.01 394 1199 1.100 10000.000 0.000 1.285
19 57.00 1200.01 374 1192 1.100 10000.000 0.000 1.285
20 60.00 1200.01 354 1224 1.100 10000.000 0.000 1.285
21 63.00 1200.01 392 1227 1.100 10000.000 0.000 1.285
22 66.00 1200.01 404 1295 1.100 10000.000 0.000 1.285
23 69.00 1200.01 331 1230 1.100 10000.000 0.000 1.285
24 72.00 1200.01 389 1222 1.100 10000.000 0.000 1.285
25 75.00 1200.01 395 1248 1.100 10000.000 0.000 1.285
26 78.00 1200.01 396 1280 1.100 10000.000 0.000 1.285
27 81.00 1200.01 382 1242 1.100 10000.000 0.000 1.285
28 84.00 1200.01 384 1247 1.100 10000.000 0.000 1.285
29 87.00 1200.01 365 1219 1.100 10000.000 0.000 1.285
30 90.00 1200.01 384 1308 1.100 10000.000 0.000 1.285
31 93.00 1200.01 374 1258 1.100 10000.000 0.000 1.285
32 96.00 1200.01 383 1243 1.100 10000.000 0.000 1.285
33 99.00 1200.01 395 1286 1.100 10000.000 0.000 1.285
34 102.00 1200.01 382 1269 1.100 10000.000 0.000 1.285
35 105.00 1200.01 403 1298 1.100 10000.000 0.000 1.285
36 108.00 1200.01 414 1282 1.100 10000.000 0.000 1.285
37 111.00 1200.01 393 1193 1.100 10000.000 0.000 1.285
38 114.00 1200.01 452 1302 1.100 10000.000 0.000 1.285
39 117.00 1200.01 384 1241 1.100 10000.000 0.000 1.285
40 120.00 1200.01 368 1276 1.100 10000.000 0.000 1.285
41 123.00 1200.01 406 1279 1.100 10000.000 0.000 1.285
42 126.00 1200.01 383 1290 1.100 10000.000 0.000 1.285
43 129.00 1200.01 390 1238 1.100 10000.000 0.000 1.285
44 132.00 1200.01 409 1223 1.100 10000.000 0.000 1.285
45 135.00 1200.01 393 1217 1.100 10000.000 0.000 1.285
46 138.00 1200.01 399 1237 1.100 10000.000 0.000 1.285
47 141.00 1200.01 356 1248 1.100 10000.000 0.000 1.285
48 144.00 1200.01 383 1216 1.100 10000.000 0.000 1.285
49 147.00 1200.01 402 1260 1.100 10000.000 0.000 1.285
50 150.00 1200.01 398 1276 1.100 10000.000 0.000 1.285
51 153.00 1200.01 365 1224 1.100 10000.000 0.000 1.285
52 156.00 1200.01 394 1195 1.100 10000.000 0.000 1.285
53 159.00 1200.01 405 1219 1.100 10000.000 0.000 1.285
54 162.00 1200.01 387 1254 1.100 10000.000 0.000 1.285
55 165.00 1200.01 372 1130 1.100 10000.000 0.000 1.285
56 168.00 1200.01 390 1257 1.100 10000.000 0.000 1.285
57 171.00 1200.01 396 1194 1.100 10000.000 0.000 1.285
58 174.00 1200.01 392 1245 1.100 10000.000 0.000 1.285
59 177.00 1200.01 402 1271 1.100 10000.000 0.000 1.285
60 180.00 1200.01 391 1298 1.100 10000.000 0.000 1.285
61 183.00 1200.01 398 1199 1.100 10000.000 0.000 1.285
62 186.00 1200.01 381 1324 1.100 10000.000 0.000 1.285
63 189.00 1200.01 385 1241 1.100 10000.000 0.000 1.285
64 192.00 1200.01 365 1328 1.100 10000.000 0.000 1.285
65 195.00 1200.01 427 1250 1.100 10000.000 0.000 1.285
66 198.00 1200.01 393 1271 1.100 10000.000 0.000 1.285
67 201.00 1200.01 418 1283 1.100 10000.000 0.000 1.285
68 204.00 1200.01 398 1278 1.100 10000.000 0.000 1.285
69 207.00 1200.01 425 1313 1.100 10000.000 0.000 1.285
70 210.00 1200.01 397 1329 1.100 10000.000 0.000 1.285
71 213.00 1200.01 385 1250 1.100 10000.000 0.000 1.285
72 216.00 1200.01 405 1393 1.100 10000.000 0.000 1.285
73 219.00 1200.01 367 1259 1.100 10000.000 0.000 1.285
74 222.00 1200.01 411 1288 1.100 10000.000 0.000 1.285
75 225.00 1200.01 413 1287 1.100 10000.000 0.000 1.285
76 228.00 1200.01 393 1253 1.100 10000.000 0.000 1.285
77 231.00 1200.01 400 1282 1.100 10000.000 0.000 1.285
78 234.00 1200.01 383 1229 1.100 10000.000 0.000 1.285
79 237.00 1200.01 410 1190 1.100 10000.000 0.000 1.285
80 240.00 1200.01 392 1239 1.100 10000.000 0.000 1.285
81 243.00 1200.01 399 1293 1.100 10000.000 0.000 1.285
82 246.00 1200.01 385 1177 1.100 10000.000 0.000 1.285
83 249.00 1200.01 397 1188 1.100 10000.000 0.000 1.285
84 252.00 1200.01 382 1213 1.100 10000.000 0.000 1.285
85 255.00 1200.01 414 1171 1.100 10000.000 0.000 1.285
86 258.00 1200.01 387 1187 1.100 10000.000 0.000 1.285
87 261.00 1200.01 387 1258 1.100 10000.000 0.000 1.285
88 264.00 1200.01 400 1177 1.100 10000.000 0.000 1.285
89 267.00 1200.01 404 1214 1.100 10000.000 0.000 1.285
90 270.00 1200.01 381 1224 1.100 10000.000 0.000 1.285
91 273.00 1200.01 395 1181 1.100 10000.000 0.000 1.285
92 276.00 1200.01 423 1188 1.100 10000.000 0.000 1.285
93 279.00 1200.01 360 1261 1.100 10000.000 0.000 1.285
94 282.00 1200.01 373 1315 1.100 10000.000 0.000 1.285
95 285.00 1200.01 388 1288 1.100 10000.000 0.000 1.285
96 288.00 1200.01 379 1300 1.100 10000.000 0.000 1.285
97 291.00 1200.01 370 1253 1.100 10000.000 0.000 1.285
98 294.00 1200.01 418 1371 1.100 10000.000 0.000 1.285
99 297.00 1200.01 401 1209 1.100 10000.000 0.000 1.285
100 300.00 1200.01 326 1019 1.100 10000.000 0.000 1.285
