# BinNR microsec tot-time (s)  O-Beam AUX Ampl(V) f(Hz) phase(deg) chi(pos)
0 0.00 1200.00 239 705 1.100 10000.000 0.000 1.505
1 3.00 1200.00 450 1414 1.100 10000.000 0.000 1.505
2 6.00 1200.00 494 1345 1.100 10000.000 0.000 1.505
3 9.00 1200.00 481 1414 1.100 10000.000 0.000 1.505
4 12.00 1200.00 483 1324 1.100 10000.000 0.000 1.505
5 15.00 1200.00 474 1414 1.100 10000.000 0.000 1.505
6 18.00 1200.00 470 1364 1.100 10000.000 0.000 1.505
7 21.00 1200.00 494 1356 1.100 10000.000 0.000 1.505
8 24.00 1200.00 485 1418 1.100 10000.000 0.000 1.505
9 27.00 1200.00 472 1359 1.100 10000.000 0.000 1.505
10 30.00 1200.00 496 1411 1.100 10000.000 0.000 1.505
11 33.00 1200.00 491 1395 1.100 10000.000 0.000 1.505
12 36.00 1200.00 485 1385 1.100 10000.000 0.000 1.505
13 39.00 1200.00 455 1355 1.100 10000.000 0.000 1.505
14 42.00 1200.00 444 1378 1.100 10000.000 0.000 1.505
15 45.00 1200.00 442 1397 1.100 10000.000 0.000 1.505
16 48.00 1200.00 494 1358 1.100 10000.000 0.000 1.505
17 51.00 1200.00 503 1355 1.100 10000.000 0.000 1.505
18 54.00 1200.00 450 1399 1.100 10000.000 0.000 1.505
19 57.00 1200.00 474 1399 1.100 10000.000 0.000 1.505
20 60.00 1200.00 451 1410 1.100 10000.000 0.000 1.505
21 63.00 1200.00 465 1351 1.100 10000.000 0.000 1.505
22 66.00 1200.00 468 1402 1.100 10000.000 0.000 1.505
23 69.00 1200.00 470 1329 1.100 10000.000 0.000 1.505
24 72.00 1200.00 482 1406 1.100 10000.000 0.000 1.505
25 75.00 1200.00 461 1404 1.100 10000.000 0.000 1.505
26 78.00 1200.00 456 1500 1.100 10000.000 0.000 1.505
27 81.00 1200.00 474 1476 1.100 10000.000 0.000 1.505
28 84.00 1200.00 483 1441 1.100 10000.000 0.000 1.505
29 87.00 1200.00 438 1341 1.100 10000.000 0.000 1.505
30 90.00 1200.00 473 1406 1.100 10000.000 0.000 1.505
31 93.00 1200.00 480 1396 1.100 10000.000 0.000 1.505
32 96.00 1200.00 450 1455 1.100 10000.000 0.000 1.505
33 99.00 1200.00 481 1361 1.100 10000.000 0.000 1.505
34 102.00 1200.00 483 1386 1.100 10000.000 0.000 1.505
35 105.00 1200.00 481 1363 1.100 10000.000 0.000 1.505
36 108.00 1200.00 469 1385 1.100 10000.000 0.000 1.505
37 111.00 1200.00 461 1397 1.100 10000.000 0.000 1.505
38 114.00 1200.00 494 1349 1.100 10000.000 0.000 1.505
39 117.00 1200.00 467 1453 1.100 10000.000 0.000 1.505
40 120.00 1200.00 481 1409 1.100 10000.000 0.000 1.505
41 123.00 1200.00 498 1436 1.100 10000.000 0.000 1.505
42 126.00 1200.00 451 1395 1.100 10000.000 0.000 1.505
43 129.00 1200.00 448 1362 1.100 10000.000 0.000 1.505
44 132.00 1200.00 497 1389 1.100 10000.000 0.000 1.505
45 135.00 1200.00 484 1452 1.100 10000.000 0.000 1.505
46 138.00 1200.00 481 1386 1.100 10000.000 0.000 1.505
47 141.00 1200.00 475 1374 1.100 10000.000 0.000 1.505
48 144.00 1200.00 479 1358 1.100 10000.000 0.000 1.505
49 147.00 1200.00 436 1312 1.100 10000.000 0.000 1.505
50 150.00 1200.00 446 1370 1.100 10000.000 0.000 1.505
51 153.00 1200.00 425 1396 1.100 10000.000 0.000 1.505
52 156.00 1200.00 460 1348 1.100 10000.000 0.000 1.505
53 159.00 1200.00 481 1372 1.100 10000.000 0.000 1.505
54 162.00 1200.00 472 1409 1.100 10000.000 0.000 1.505
55 165.00 1200.00 470 1372 1.100 10000.000 0.000 1.505
56 168.00 1200.00 459 1352 1.100 10000.000 0.000 1.505
57 171.00 1200.00 491 1305 1.100 10000.000 0.000 1.505
58 174.00 1200.00 453 1393 1.100 10000.000 0.000 1.505
59 177.00 1200.00 431 1389 1.100 10000.000 0.000 1.505
60 180.00 1200.00 456 1407 1.100 10000.000 0.000 1.505
61 183.00 1200.00 471 1430 1.100 10000.000 0.000 1.505
62 186.00 1200.00 471 1394 1.100 10000.000 0.000 1.505
63 189.00 1200.00 460 1394 1.100 10000.000 0.000 1.505
64 192.00 1200.00 453 1332 1.100 10000.000 0.000 1.505
65 195.00 1200.00 474 1393 1.100 10000.000 0.000 1.505
66 198.00 1200.00 499 1369 1.100 10000.000 0.000 1.505
67 201.00 1200.00 467 1295 1.100 10000.000 0.000 1.505
68 204.00 1200.00 462 1389 1.100 10000.000 0.000 1.505
69 207.00 1200.00 444 1411 1.100 10000.000 0.000 1.505
70 210.00 1200.00 453 1391 1.100 10000.000 0.000 1.505
71 213.00 1200.00 493 1322 1.100 10000.000 0.000 1.505
72 216.00 1200.00 483 1403 1.100 10000.000 0.000 1.505
73 219.00 1200.00 467 1387 1.100 10000.000 0.000 1.505
74 222.00 1200.00 480 1441 1.100 10000.000 0.000 1.505
75 225.00 1200.00 452 1350 1.100 10000.000 0.000 1.505
76 228.00 1200.00 525 1396 1.100 10000.000 0.000 1.505
77 231.00 1200.00 488 1377 1.100 10000.000 0.000 1.505
78 234.00 1200.00 476 1330 1.100 10000.000 0.000 1.505
79 237.00 1200.00 455 1376 1.100 10000.000 0.000 1.505
80 240.00 1200.00 451 1413 1.100 10000.000 0.000 1.505
81 243.00 1200.00 486 1339 1.100 10000.000 0.000 1.505
82 246.00 1200.00 465 1414 1.100 10000.000 0.000 1.505
83 249.00 1200.00 509 1335 1.100 10000.000 0.000 1.505
84 252.00 1200.00 457 1392 1.100 10000.000 0.000 1.505
85 255.00 1200.00 533 1366 1.100 10000.000 0.000 1.505
86 258.00 1200.00 465 1373 1.100 10000.000 0.000 1.505
87 261.00 1200.00 471 1322 1.100 10000.000 0.000 1.505
88 264.00 1200.00 464 1447 1.100 10000.000 0.000 1.505
89 267.00 1200.00 475 1392 1.100 10000.000 0.000 1.505
90 270.00 1200.00 459 1411 1.100 10000.000 0.000 1.505
91 273.00 1200.00 470 1432 1.100 10000.000 0.000 1.505
92 276.00 1200.00 463 1391 1.100 10000.000 0.000 1.505
93 279.00 1200.00 474 1380 1.100 10000.000 0.000 1.505
94 282.00 1200.00 492 1393 1.100 10000.000 0.000 1.505
95 285.00 1200.00 497 1383 1.100 10000.000 0.000 1.505
96 288.00 1200.00 488 1327 1.100 10000.000 0.000 1.505
97 291.00 1200.00 438 1451 1.100 10000.000 0.000 1.505
98 294.00 1200.00 450 1387 1.100 10000.000 0.000 1.505
99 297.00 1200.00 482 1389 1.100 10000.000 0.000 1.505
100 300.00 1200.00 418 1195 1.100 10000.000 0.000 1.505
