# BinNR microsec tot-time (s)  O-Beam AUX Ampl(V) f(Hz) phase(deg) chi(pos)
0 0.00 1200.00 220 585 1.100 10000.000 0.000 -0.308
1 3.00 1200.00 490 1206 1.100 10000.000 0.000 -0.308
2 6.00 1200.00 462 1221 1.100 10000.000 0.000 -0.308
3 9.00 1200.00 482 1125 1.100 10000.000 0.000 -0.308
4 12.00 1200.00 453 1194 1.100 10000.000 0.000 -0.308
5 15.00 1200.00 481 1240 1.100 10000.000 0.000 -0.308
6 18.00 1200.00 470 1230 1.100 10000.000 0.000 -0.308
7 21.00 1200.00 434 1232 1.100 10000.000 0.000 -0.308
8 24.00 1200.00 478 1206 1.100 10000.000 0.000 -0.308
9 27.00 1200.00 472 1166 1.100 10000.000 0.000 -0.308
10 30.00 1200.00 497 1227 1.100 10000.000 0.000 -0.308
11 33.00 1200.00 453 1189 1.100 10000.000 0.000 -0.308
12 36.00 1200.00 453 1222 1.100 10000.000 0.000 -0.308
13 39.00 1200.00 458 1201 1.100 10000.000 0.000 -0.308
14 42.00 1200.00 511 1221 1.100 10000.000 0.000 -0.308
15 45.00 1200.00 470 1217 1.100 10000.000 0.000 -0.308
16 48.00 1200.00 511 1243 1.100 10000.000 0.000 -0.308
17 51.00 1200.00 478 1294 1.100 10000.000 0.000 -0.308
18 54.00 1200.00 490 1232 1.100 10000.000 0.000 -0.308
19 57.00 1200.00 486 1234 1.100 10000.000 0.000 -0.308
20 60.00 1200.00 494 1273 1.100 10000.000 0.000 -0.308
21 63.00 1200.00 463 1260 1.100 10000.000 0.000 -0.308
22 66.00 1200.00 475 1303 1.100 10000.000 0.000 -0.308
23 69.00 1200.00 472 1224 1.100 10000.000 0.000 -0.308
24 72.00 1200.00 515 1247 1.100 10000.000 0.000 -0.308
25 75.00 1200.00 452 1251 1.100 10000.000 0.000 -0.308
26 78.00 1200.00 483 1174 1.100 10000.000 0.000 -0.308
27 81.00 1200.00 476 1255 1.100 10000.000 0.000 -0.308
28 84.00 1200.00 504 1202 1.100 10000.000 0.000 -0.308
29 87.00 1200.00 473 1111 1.100 10000.000 0.000 -0.308
30 90.00 1200.00 449 1227 1.100 10000.000 0.000 -0.308
31 93.00 1200.00 499 1183 1.100 10000.000 0.000 -0.308
32 96.00 1200.00 468 1155 1.100 10000.000 0.000 -0.308
33 99.00 1200.00 422 1181 1.100 10000.000 0.000 -0.308
34 102.00 1200.00 454 1225 1.100 10000.000 0.000 -0.308
35 105.00 1200.00 446 1173 1.100 10000.000 0.000 -0.308
36 108.00 1200.00 473 1149 1.100 10000.000 0.000 -0.308
37 111.00 1200.00 462 1180 1.100 10000.000 0.000 -0.308
38 114.00 1200.00 460 1116 1.100 10000.000 0.000 -0.308
39 117.00 1200.00 470 1189 1.100 10000.000 0.000 -0.308
40 120.00 1200.00 462 1233 1.100 10000.000 0.000 -0.308
41 123.00 1200.00 478 1255 1.100 10000.000 0.000 -0.308
42 126.00 1200.00 489 1251 1.100 10000.000 0.000 -0.308
43 129.00 1200.00 477 1239 1.100 10000.000 0.000 -0.308
44 132.00 1200.00 466 1253 1.100 10000.000 0.000 -0.308
45 135.00 1200.00 463 1272 1.100 10000.000 0.000 -0.308
46 138.00 1200.00 466 1254 1.100 10000.000 0.000 -0.308
47 141.00 1200.00 459 1217 1.100 10000.000 0.000 -0.308
48 144.00 1200.00 489 1219 1.100 10000.000 0.000 -0.308
49 147.00 1200.00 461 1180 1.100 10000.000 0.000 -0.308
50 150.00 1200.00 463 1220 1.100 10000.000 0.000 -0.308
51 153.00 1200.00 473 1191 1.100 10000.000 0.000 -0.308
52 156.00 1200.00 462 1253 1.100 10000.000 0.000 -0.308
53 159.00 1200.00 501 1252 1.100 10000.000 0.000 -0.308
54 162.00 1200.00 493 1312 1.100 10000.000 0.000 -0.308
55 165.00 1200.00 488 1247 1.100 10000.000 0.000 -0.308
56 168.00 1200.00 497 1322 1.100 10000.000 0.000 -0.308
57 171.00 1200.00 469 1244 1.100 10000.000 0.000 -0.308
58 174.00 1200.00 478 1217 1.100 10000.000 0.000 -0.308
59 177.00 1200.00 513 1246 1.100 10000.000 0.000 -0.308
60 180.00 1200.00 451 1202 1.100 10000.000 0.000 -0.308
61 183.00 1200.00 441 1132 1.100 10000.000 0.000 -0.308
62 186.00 1200.00 454 1230 1.100 10000.000 0.000 -0.308
63 189.00 1200.00 466 1243 1.100 10000.000 0.000 -0.308
64 192.00 1200.00 487 1226 1.100 10000.000 0.000 -0.308
65 195.00 1200.00 458 1213 1.100 10000.000 0.000 -0.308
66 198.00 1200.00 472 1189 1.100 10000.000 0.000 -0.308
67 201.00 1200.00 462 1188 1.100 10000.000 0.000 -0.308
68 204.00 1200.00 449 1206 1.100 10000.000 0.000 -0.308
69 207.00 1200.00 480 1183 1.100 10000.000 0.000 -0.308
70 210.00 1200.00 448 1190 1.100 10000.000 0.000 -0.308
71 213.00 1200.00 451 1173 1.100 10000.000 0.000 -0.308
72 216.00 1200.00 481 1220 1.100 10000.000 0.000 -0.308
73 219.00 1200.00 455 1206 1.100 10000.000 0.000 -0.308
74 222.00 1200.00 473 1222 1.100 10000.000 0.000 -0.308
75 225.00 1200.00 463 1195 1.100 10000.000 0.000 -0.308
76 228.00 1200.00 511 1250 1.100 10000.000 0.000 -0.308
77 231.00 1200.00 474 1198 1.100 10000.000 0.000 -0.308
78 234.00 1200.00 502 1248 1.100 10000.000 0.000 -0.308
79 237.00 1200.00 462 1212 1.100 10000.000 0.000 -0.308
80 240.00 1200.00 487 1238 1.100 10000.000 0.000 -0.308
81 243.00 1200.00 469 1233 1.100 10000.000 0.000 -0.308
82 246.00 1200.00 474 1272 1.100 10000.000 0.000 -0.308
83 249.00 1200.00 497 1212 1.100 10000.000 0.000 -0.308
84 252.00 1200.00 455 1258 1.100 10000.000 0.000 -0.308
85 255.00 1200.00 514 1250 1.100 10000.000 0.000 -0.308
86 258.00 1200.00 497 1236 1.100 10000.000 0.000 -0.308
87 261.00 1200.00 433 1149 1.100 10000.000 0.000 -0.308
88 264.00 1200.00 474 1189 1.100 10000.000 0.000 -0.308
89 267.00 1200.00 473 1222 1.100 10000.000 0.000 -0.308
90 270.00 1200.00 480 1183 1.100 10000.000 0.000 -0.308
91 273.00 1200.00 459 1198 1.100 10000.000 0.000 -0.308
92 276.00 1200.00 467 1330 1.100 10000.000 0.000 -0.308
93 279.00 1200.00 493 1255 1.100 10000.000 0.000 -0.308
94 282.00 1200.00 458 1247 1.100 10000.000 0.000 -0.308
95 285.00 1200.00 459 1185 1.100 10000.000 0.000 -0.308
96 288.00 1200.00 487 1222 1.100 10000.000 0.000 -0.308
97 291.00 1200.00 462 1176 1.100 10000.000 0.000 -0.308
98 294.00 1200.00 439 1267 1.100 10000.000 0.000 -0.308
99 297.00 1200.00 459 1196 1.100 10000.000 0.000 -0.308
100 300.00 1200.00 413 969 1.100 10000.000 0.000 -0.308
