# BinNR microsec tot-time (s)  O-Beam AUX Ampl(V) f(Hz) phase(deg) chi(pos)
0 0.00 1200.01 144 505 1.100 10000.000 0.000 1.099
1 3.00 1200.01 285 962 1.100 10000.000 0.000 1.099
2 6.00 1200.01 315 967 1.100 10000.000 0.000 1.099
3 9.00 1200.01 316 997 1.100 10000.000 0.000 1.099
4 12.00 1200.01 291 1011 1.100 10000.000 0.000 1.099
5 15.00 1200.01 278 984 1.100 10000.000 0.000 1.099
6 18.00 1200.01 279 951 1.100 10000.000 0.000 1.099
7 21.00 1200.01 323 933 1.100 10000.000 0.000 1.099
8 24.00 1200.01 263 995 1.100 10000.000 0.000 1.099
9 27.00 1200.01 309 930 1.100 10000.000 0.000 1.099
10 30.00 1200.01 304 956 1.100 10000.000 0.000 1.099
11 33.00 1200.01 296 910 1.100 10000.000 0.000 1.099
12 36.00 1200.01 252 948 1.100 10000.000 0.000 1.099
13 39.00 1200.01 288 946 1.100 10000.000 0.000 1.099
14 42.00 1200.01 260 822 1.100 10000.000 0.000 1.099
15 45.00 1200.01 277 896 1.100 10000.000 0.000 1.099
16 48.00 1200.01 253 927 1.100 10000.000 0.000 1.099
17 51.00 1200.01 292 872 1.100 10000.000 0.000 1.099
18 54.00 1200.01 243 882 1.100 10000.000 0.000 1.099
19 57.00 1200.01 289 864 1.100 10000.000 0.000 1.099
20 60.00 1200.01 292 895 1.100 10000.000 0.000 1.099
21 63.00 1200.01 265 920 1.100 10000.000 0.000 1.099
22 66.00 1200.01 316 935 1.100 10000.000 0.000 1.099
23 69.00 1200.01 291 923 1.100 10000.000 0.000 1.099
24 72.00 1200.01 239 879 1.100 10000.000 0.000 1.099
25 75.00 1200.01 298 909 1.100 10000.000 0.000 1.099
26 78.00 1200.01 259 934 1.100 10000.000 0.000 1.099
27 81.00 1200.01 263 930 1.100 10000.000 0.000 1.099
28 84.00 1200.01 289 898 1.100 10000.000 0.000 1.099
29 87.00 1200.01 274 939 1.100 10000.000 0.000 1.099
30 90.00 1200.01 288 957 1.100 10000.000 0.000 1.099
31 93.00 1200.01 273 994 1.100 10000.000 0.000 1.099
32 96.00 1200.01 280 975 1.100 10000.000 0.000 1.099
33 99.00 1200.01 292 955 1.100 10000.000 0.000 1.099
34 102.00 1200.01 295 1011 1.100 10000.000 0.000 1.099
35 105.00 1200.01 307 1029 1.100 10000.000 0.000 1.099
36 108.00 1200.01 293 939 1.100 10000.000 0.000 1.099
37 111.00 1200.01 278 1025 1.100 10000.000 0.000 1.099
38 114.00 1200.01 290 930 1.100 10000.000 0.000 1.099
39 117.00 1200.01 297 962 1.100 10000.000 0.000 1.099
40 120.00 1200.01 302 966 1.100 10000.000 0.000 1.099
41 123.00 1200.01 299 1002 1.100 10000.000 0.000 1.099
42 126.00 1200.01 300 996 1.100 10000.000 0.000 1.099
43 129.00 1200.01 269 914 1.100 10000.000 0.000 1.099
44 132.00 1200.01 311 895 1.100 10000.000 0.000 1.099
45 135.00 1200.01 280 967 1.100 10000.000 0.000 1.099
46 138.00 1200.01 287 931 1.100 10000.000 0.000 1.099
47 141.00 1200.01 259 904 1.100 10000.000 0.000 1.099
48 144.00 1200.01 280 955 1.100 10000.000 0.000 1.099
49 147.00 1200.01 296 925 1.100 10000.000 0.000 1.099
50 150.00 1200.01 275 901 1.100 10000.000 0.000 1.099
51 153.00 1200.01 270 902 1.100 10000.000 0.000 1.099
52 156.00 1200.01 270 853 1.100 10000.000 0.000 1.099
53 159.00 1200.01 272 873 1.100 10000.000 0.000 1.099
54 162.00 1200.01 273 945 1.100 10000.000 0.000 1.099
55 165.00 1200.01 314 926 1.100 10000.000 0.000 1.099
56 168.00 1200.01 267 945 1.100 10000.000 0.000 1.099
57 171.00 1200.01 296 875 1.100 10000.000 0.000 1.099
58 174.00 1200.01 311 910 1.100 10000.000 0.000 1.099
59 177.00 1200.01 269 926 1.100 10000.000 0.000 1.099
60 180.00 1200.01 273 914 1.100 10000.000 0.000 1.099
61 183.00 1200.01 274 952 1.100 10000.000 0.000 1.099
62 186.00 1200.01 271 1020 1.100 10000.000 0.000 1.099
63 189.00 1200.01 281 969 1.100 10000.000 0.000 1.099
64 192.00 1200.01 241 929 1.100 10000.000 0.000 1.099
65 195.00 1200.01 242 988 1.100 10000.000 0.000 1.099
66 198.00 1200.01 277 922 1.100 10000.000 0.000 1.099
67 201.00 1200.01 293 940 1.100 10000.000 0.000 1.099
68 204.00 1200.01 275 1025 1.100 10000.000 0.000 1.099
69 207.00 1200.01 277 962 1.100 10000.000 0.000 1.099
70 210.00 1200.01 279 969 1.100 10000.000 0.000 1.099
71 213.00 1200.01 297 992 1.100 10000.000 0.000 1.099
72 216.00 1200.01 314 962 1.100 10000.000 0.000 1.099
73 219.00 1200.01 295 912 1.100 10000.000 0.000 1.099
74 222.00 1200.01 283 982 1.100 10000.000 0.000 1.099
75 225.00 1200.01 302 981 1.100 10000.000 0.000 1.099
76 228.00 1200.01 315 931 1.100 10000.000 0.000 1.099
77 231.00 1200.01 300 951 1.100 10000.000 0.000 1.099
78 234.00 1200.01 299 978 1.100 10000.000 0.000 1.099
79 237.00 1200.01 292 963 1.100 10000.000 0.000 1.099
80 240.00 1200.01 295 875 1.100 10000.000 0.000 1.099
81 243.00 1200.01 268 909 1.100 10000.000 0.000 1.099
82 246.00 1200.01 289 914 1.100 10000.000 0.000 1.099
83 249.00 1200.01 273 843 1.100 10000.000 0.000 1.099
84 252.00 1200.01 250 879 1.100 10000.000 0.000 1.099
85 255.00 1200.01 274 860 1.100 10000.000 0.000 1.099
86 258.00 1200.01 298 871 1.100 10000.000 0.000 1.099
87 261.00 1200.01 262 906 1.100 10000.000 0.000 1.099
88 264.00 1200.01 255 966 1.100 10000.000 0.000 1.099
89 267.00 1200.01 272 880 1.100 10000.000 0.000 1.099
90 270.00 1200.01 278 937 1.100 10000.000 0.000 1.099
91 273.00 1200.01 295 928 1.100 10000.000 0.000 1.099
92 276.00 1200.01 304 938 1.100 10000.000 0.000 1.099
93 279.00 1200.01 256 868 1.100 10000.000 0.000 1.099
94 282.00 1200.01 292 904 1.100 10000.000 0.000 1.099
95 285.00 1200.01 294 922 1.100 10000.000 0.000 1.099
96 288.00 1200.01 276 915 1.100 10000.000 0.000 1.099
97 291.00 1200.01 284 971 1.100 10000.000 0.000 1.099
98 294.00 1200.01 276 992 1.100 10000.000 0.000 1.099
99 297.00 1200.01 287 969 1.100 10000.000 0.000 1.099
100 300.00 1200.01 228 869 1.100 10000.000 0.000 1.099
