# BinNR microsec tot-time (s)  O-Beam AUX Ampl(V) f(Hz) phase(deg) chi(pos)
0 0.00 1500.02 160 589 0.740 10000.000 0.000 -0.505
1 3.00 1500.02 378 1118 0.740 10000.000 0.000 -0.505
2 6.00 1500.02 371 1161 0.740 10000.000 0.000 -0.505
3 9.00 1500.02 353 1079 0.740 10000.000 0.000 -0.505
4 12.00 1500.02 398 1131 0.740 10000.000 0.000 -0.505
5 15.00 1500.02 401 1134 0.740 10000.000 0.000 -0.505
6 18.00 1500.02 399 1132 0.740 10000.000 0.000 -0.505
7 21.00 1500.02 382 1061 0.740 10000.000 0.000 -0.505
8 24.00 1500.02 416 1159 0.740 10000.000 0.000 -0.505
9 27.00 1500.02 395 1184 0.740 10000.000 0.000 -0.505
10 30.00 1500.02 439 1177 0.740 10000.000 0.000 -0.505
11 33.00 1500.02 416 1162 0.740 10000.000 0.000 -0.505
12 36.00 1500.02 404 1255 0.740 10000.000 0.000 -0.505
13 39.00 1500.02 391 1124 0.740 10000.000 0.000 -0.505
14 42.00 1500.02 382 1038 0.740 10000.000 0.000 -0.505
15 45.00 1500.02 383 1135 0.740 10000.000 0.000 -0.505
16 48.00 1500.02 409 1127 0.740 10000.000 0.000 -0.505
17 51.00 1500.02 380 1160 0.740 10000.000 0.000 -0.505
18 54.00 1500.02 403 1119 0.740 10000.000 0.000 -0.505
19 57.00 1500.02 352 1089 0.740 10000.000 0.000 -0.505
20 60.00 1500.02 370 1124 0.740 10000.000 0.000 -0.505
21 63.00 1500.02 359 1070 0.740 10000.000 0.000 -0.505
22 66.00 1500.02 329 1106 0.740 10000.000 0.000 -0.505
23 69.00 1500.02 345 1129 0.740 10000.000 0.000 -0.505
24 72.00 1500.02 321 1150 0.740 10000.000 0.000 -0.505
25 75.00 1500.02 350 1097 0.740 10000.000 0.000 -0.505
26 78.00 1500.02 346 1185 0.740 10000.000 0.000 -0.505
27 81.00 1500.02 315 1137 0.740 10000.000 0.000 -0.505
28 84.00 1500.02 359 1203 0.740 10000.000 0.000 -0.505
29 87.00 1500.02 338 1268 0.740 10000.000 0.000 -0.505
30 90.00 1500.02 347 1219 0.740 10000.000 0.000 -0.505
31 93.00 1500.02 281 1261 0.740 10000.000 0.000 -0.505
32 96.00 1500.02 360 1207 0.740 10000.000 0.000 -0.505
33 99.00 1500.02 301 1219 0.740 10000.000 0.000 -0.505
34 102.00 1500.02 359 1228 0.740 10000.000 0.000 -0.505
35 105.00 1500.02 358 1257 0.740 10000.000 0.000 -0.505
36 108.00 1500.02 367 1168 0.740 10000.000 0.000 -0.505
37 111.00 1500.02 386 1170 0.740 10000.000 0.000 -0.505
38 114.00 1500.02 393 1263 0.740 10000.000 0.000 -0.505
39 117.00 1500.02 385 1193 0.740 10000.000 0.000 -0.505
40 120.00 1500.02 422 1215 0.740 10000.000 0.000 -0.505
41 123.00 1500.02 379 1128 0.740 10000.000 0.000 -0.505
42 126.00 1500.02 405 1092 0.740 10000.000 0.000 -0.505
43 129.00 1500.02 404 1111 0.740 10000.000 0.000 -0.505
44 132.00 1500.02 400 1153 0.740 10000.000 0.000 -0.505
45 135.00 1500.02 413 1004 0.740 10000.000 0.000 -0.505
46 138.00 1500.02 417 1065 0.740 10000.000 0.000 -0.505
47 141.00 1500.02 362 1061 0.740 10000.000 0.000 -0.505
48 144.00 1500.02 415 1111 0.740 10000.000 0.000 -0.505
49 147.00 1500.02 405 1040 0.740 10000.000 0.000 -0.505
50 150.00 1500.02 416 1022 0.740 10000.000 0.000 -0.505
51 153.00 1500.02 385 1098 0.740 10000.000 0.000 -0.505
52 156.00 1500.02 359 1086 0.740 10000.000 0.000 -0.505
53 159.00 1500.02 385 1056 0.740 10000.000 0.000 -0.505
54 162.00 1500.02 406 1117 0.740 10000.000 0.000 -0.505
55 165.00 1500.02 326 1116 0.740 10000.000 0.000 -0.505
56 168.00 1500.02 354 1162 0.740 10000.000 0.000 -0.505
57 171.00 1500.02 387 1184 0.740 10000.000 0.000 -0.505
58 174.00 1500.02 329 1203 0.740 10000.000 0.000 -0.505
59 177.00 1500.02 331 1205 0.740 10000.000 0.000 -0.505
60 180.00 1500.02 324 1178 0.740 10000.000 0.000 -0.505
61 183.00 1500.02 333 1172 0.740 10000.000 0.000 -0.505
62 186.00 1500.02 330 1238 0.740 10000.000 0.000 -0.505
63 189.00 1500.02 341 1240 0.740 10000.000 0.000 -0.505
64 192.00 1500.02 364 1301 0.740 10000.000 0.000 -0.505
65 195.00 1500.02 355 1251 0.740 10000.000 0.000 -0.505
66 198.00 1500.02 320 1189 0.740 10000.000 0.000 -0.505
67 201.00 1500.02 373 1230 0.740 10000.000 0.000 -0.505
68 204.00 1500.02 366 1171 0.740 10000.000 0.000 -0.505
69 207.00 1500.02 375 1223 0.740 10000.000 0.000 -0.505
70 210.00 1500.02 381 1232 0.740 10000.000 0.000 -0.505
71 213.00 1500.02 369 1225 0.740 10000.000 0.000 -0.505
72 216.00 1500.02 394 1173 0.740 10000.000 0.000 -0.505
73 219.00 1500.02 431 1219 0.740 10000.000 0.000 -0.505
74 222.00 1500.02 380 1184 0.740 10000.000 0.000 -0.505
75 225.00 1500.02 461 1162 0.740 10000.000 0.000 -0.505
76 228.00 1500.02 387 1101 0.740 10000.000 0.000 -0.505
77 231.00 1500.02 357 1136 0.740 10000.000 0.000 -0.505
78 234.00 1500.02 390 1134 0.740 10000.000 0.000 -0.505
79 237.00 1500.02 387 1097 0.740 10000.000 0.000 -0.505
80 240.00 1500.02 409 1063 0.740 10000.000 0.000 -0.505
81 243.00 1500.02 377 1036 0.740 10000.000 0.000 -0.505
82 246.00 1500.02 418 1141 0.740 10000.000 0.000 -0.505
83 249.00 1500.02 400 998 0.740 10000.000 0.000 -0.505
84 252.00 1500.02 390 1082 0.740 10000.000 0.000 -0.505
85 255.00 1500.02 394 995 0.740 10000.000 0.000 -0.505
86 258.00 1500.02 390 1090 0.740 10000.000 0.000 -0.505
87 261.00 1500.02 331 1156 0.740 10000.000 0.000 -0.505
88 264.00 1500.02 381 1222 0.740 10000.000 0.000 -0.505
89 267.00 1500.02 374 1192 0.740 10000.000 0.000 -0.505
90 270.00 1500.02 334 1115 0.740 10000.000 0.000 -0.505
91 273.00 1500.02 330 1198 0.740 10000.000 0.000 -0.505
92 276.00 1500.02 350 1265 0.740 10000.000 0.000 -0.505
93 279.00 1500.02 372 1188 0.740 10000.000 0.000 -0.505
94 282.00 1500.02 353 1228 0.740 10000.000 0.000 -0.505
95 285.00 1500.02 383 1223 0.740 10000.000 0.000 -0.505
96 288.00 1500.02 362 1168 0.740 10000.000 0.000 -0.505
97 291.00 1500.02 319 1193 0.740 10000.000 0.000 -0.505
98 294.00 1500.02 385 1198 0.740 10000.000 0.000 -0.505
99 297.00 1500.02 370 1168 0.740 10000.000 0.000 -0.505
100 300.00 1500.02 413 1233 0.740 10000.000 0.000 -0.505
101 303.00 1500.02 381 1215 0.740 10000.000 0.000 -0.505
102 306.00 1500.02 372 1159 0.740 10000.000 0.000 -0.505
103 309.00 1500.02 370 1220 0.740 10000.000 0.000 -0.505
104 312.00 1500.02 373 1211 0.740 10000.000 0.000 -0.505
105 315.00 1500.02 337 1216 0.740 10000.000 0.000 -0.505
106 318.00 1500.02 351 1229 0.740 10000.000 0.000 -0.505
107 321.00 1500.02 347 1199 0.740 10000.000 0.000 -0.505
108 324.00 1500.02 350 1134 0.740 10000.000 0.000 -0.505
109 327.00 1500.02 345 1068 0.740 10000.000 0.000 -0.505
110 330.00 1500.02 354 1131 0.740 10000.000 0.000 -0.505
111 333.00 1500.02 360 1141 0.740 10000.000 0.000 -0.505
112 336.00 1500.02 373 1109 0.740 10000.000 0.000 -0.505
113 339.00 1500.02 362 1071 0.740 10000.000 0.000 -0.505
114 342.00 1500.02 364 1055 0.740 10000.000 0.000 -0.505
115 345.00 1500.02 380 1088 0.740 10000.000 0.000 -0.505
116 348.00 1500.02 406 1102 0.740 10000.000 0.000 -0.505
117 351.00 1500.02 388 1029 0.740 10000.000 0.000 -0.505
118 354.00 1500.02 387 1102 0.740 10000.000 0.000 -0.505
119 357.00 1500.02 404 1023 0.740 10000.000 0.000 -0.505
120 360.00 1500.02 395 1084 0.740 10000.000 0.000 -0.505
121 363.00 1500.02 407 1143 0.740 10000.000 0.000 -0.505
122 366.00 1500.02 417 1151 0.740 10000.000 0.000 -0.505
123 369.00 1500.02 359 1140 0.740 10000.000 0.000 -0.505
124 372.00 1500.02 428 1161 0.740 10000.000 0.000 -0.505
125 375.00 1500.02 396 1258 0.740 10000.000 0.000 -0.505
126 378.00 1500.02 430 1161 0.740 10000.000 0.000 -0.505
127 381.00 1500.02 426 1158 0.740 10000.000 0.000 -0.505
128 384.00 1500.02 374 1239 0.740 10000.000 0.000 -0.505
129 387.00 1500.02 375 1231 0.740 10000.000 0.000 -0.505
130 390.00 1500.02 387 1250 0.740 10000.000 0.000 -0.505
131 393.00 1500.02 385 1182 0.740 10000.000 0.000 -0.505
132 396.00 1500.02 335 1216 0.740 10000.000 0.000 -0.505
133 399.00 1500.02 356 1221 0.740 10000.000 0.000 -0.505
134 402.00 1500.02 365 1267 0.740 10000.000 0.000 -0.505
135 405.00 1500.02 336 1162 0.740 10000.000 0.000 -0.505
136 408.00 1500.02 334 1261 0.740 10000.000 0.000 -0.505
137 411.00 1500.02 349 1195 0.740 10000.000 0.000 -0.505
138 414.00 1500.02 347 1266 0.740 10000.000 0.000 -0.505
139 417.00 1500.02 351 1151 0.740 10000.000 0.000 -0.505
140 420.00 1500.02 313 1210 0.740 10000.000 0.000 -0.505
141 423.00 1500.02 323 1121 0.740 10000.000 0.000 -0.505
142 426.00 1500.02 332 1183 0.740 10000.000 0.000 -0.505
143 429.00 1500.02 320 1123 0.740 10000.000 0.000 -0.505
144 432.00 1500.02 329 1134 0.740 10000.000 0.000 -0.505
