# BinNR microsec tot-time (s)  O-Beam AUX Ampl(V) f(Hz) phase(deg) chi(pos)
0 0.00 1500.00 73 89 0.740 10000.000 0.000 -1.505
1 3.00 1500.00 171 246 0.740 10000.000 0.000 -1.505
2 6.00 1500.00 170 218 0.740 10000.000 0.000 -1.505
3 9.00 1500.00 182 231 0.740 10000.000 0.000 -1.505
4 12.00 1500.00 159 204 0.740 10000.000 0.000 -1.505
5 15.00 1500.00 140 200 0.740 10000.000 0.000 -1.505
6 18.00 1500.00 157 192 0.740 10000.000 0.000 -1.505
7 21.00 1500.00 129 178 0.740 10000.000 0.000 -1.505
8 24.00 1500.00 125 178 0.740 10000.000 0.000 -1.505
9 27.00 1500.00 128 172 0.740 10000.000 0.000 -1.505
10 30.00 1500.00 108 194 0.740 10000.000 0.000 -1.505
11 33.00 1500.00 142 155 0.740 10000.000 0.000 -1.505
12 36.00 1500.00 126 156 0.740 10000.000 0.000 -1.505
13 39.00 1500.00 131 165 0.740 10000.000 0.000 -1.505
14 42.00 1500.00 126 193 0.740 10000.000 0.000 -1.505
15 45.00 1500.00 127 197 0.740 10000.000 0.000 -1.505
16 48.00 1500.00 127 171 0.740 10000.000 0.000 -1.505
17 51.00 1500.00 118 215 0.740 10000.000 0.000 -1.505
18 54.00 1500.00 152 223 0.740 10000.000 0.000 -1.505
19 57.00 1500.00 150 233 0.740 10000.000 0.000 -1.505
20 60.00 1500.00 151 218 0.740 10000.000 0.000 -1.505
21 63.00 1500.00 150 206 0.740 10000.000 0.000 -1.505
22 66.00 1500.00 182 176 0.740 10000.000 0.000 -1.505
23 69.00 1500.00 155 160 0.740 10000.000 0.000 -1.505
24 72.00 1500.00 186 211 0.740 10000.000 0.000 -1.505
25 75.00 1500.00 179 163 0.740 10000.000 0.000 -1.505
26 78.00 1500.00 216 155 0.740 10000.000 0.000 -1.505
27 81.00 1500.00 172 138 0.740 10000.000 0.000 -1.505
28 84.00 1500.00 202 149 0.740 10000.000 0.000 -1.505
29 87.00 1500.00 211 124 0.740 10000.000 0.000 -1.505
30 90.00 1500.00 187 143 0.740 10000.000 0.000 -1.505
31 93.00 1500.00 175 130 0.740 10000.000 0.000 -1.505
32 96.00 1500.00 185 148 0.740 10000.000 0.000 -1.505
33 99.00 1500.00 195 128 0.740 10000.000 0.000 -1.505
34 102.00 1500.00 183 129 0.740 10000.000 0.000 -1.505
35 105.00 1500.00 205 123 0.740 10000.000 0.000 -1.505
36 108.00 1500.00 179 128 0.740 10000.000 0.000 -1.505
37 111.00 1500.00 152 145 0.740 10000.000 0.000 -1.505
38 114.00 1500.00 138 169 0.740 10000.000 0.000 -1.505
39 117.00 1500.00 158 162 0.740 10000.000 0.000 -1.505
40 120.00 1500.00 143 165 0.740 10000.000 0.000 -1.505
41 123.00 1500.00 126 186 0.740 10000.000 0.000 -1.505
42 126.00 1500.00 136 195 0.740 10000.000 0.000 -1.505
43 129.00 1500.00 120 197 0.740 10000.000 0.000 -1.505
44 132.00 1500.00 133 247 0.740 10000.000 0.000 -1.505
45 135.00 1500.00 134 236 0.740 10000.000 0.000 -1.505
46 138.00 1500.00 133 258 0.740 10000.000 0.000 -1.505
47 141.00 1500.00 107 248 0.740 10000.000 0.000 -1.505
48 144.00 1500.00 116 255 0.740 10000.000 0.000 -1.505
49 147.00 1500.00 128 271 0.740 10000.000 0.000 -1.505
50 150.00 1500.00 163 264 0.740 10000.000 0.000 -1.505
51 153.00 1500.00 130 277 0.740 10000.000 0.000 -1.505
52 156.00 1500.00 161 249 0.740 10000.000 0.000 -1.505
53 159.00 1500.00 149 268 0.740 10000.000 0.000 -1.505
54 162.00 1500.00 158 216 0.740 10000.000 0.000 -1.505
55 165.00 1500.00 179 210 0.740 10000.000 0.000 -1.505
56 168.00 1500.00 187 197 0.740 10000.000 0.000 -1.505
57 171.00 1500.00 171 168 0.740 10000.000 0.000 -1.505
58 174.00 1500.00 158 154 0.740 10000.000 0.000 -1.505
59 177.00 1500.00 193 142 0.740 10000.000 0.000 -1.505
60 180.00 1500.00 199 162 0.740 10000.000 0.000 -1.505
61 183.00 1500.00 184 130 0.740 10000.000 0.000 -1.505
62 186.00 1500.00 178 137 0.740 10000.000 0.000 -1.505
63 189.00 1500.00 175 142 0.740 10000.000 0.000 -1.505
64 192.00 1500.00 207 132 0.740 10000.000 0.000 -1.505
65 195.00 1500.00 181 111 0.740 10000.000 0.000 -1.505
66 198.00 1500.00 192 131 0.740 10000.000 0.000 -1.505
67 201.00 1500.00 152 123 0.740 10000.000 0.000 -1.505
68 204.00 1500.00 184 132 0.740 10000.000 0.000 -1.505
69 207.00 1500.00 162 136 0.740 10000.000 0.000 -1.505
70 210.00 1500.00 161 130 0.740 10000.000 0.000 -1.505
71 213.00 1500.00 155 135 0.740 10000.000 0.000 -1.505
72 216.00 1500.00 152 168 0.740 10000.000 0.000 -1.505
73 219.00 1500.00 134 157 0.740 10000.000 0.000 -1.505
74 222.00 1500.00 122 181 0.740 10000.000 0.000 -1.505
75 225.00 1500.00 137 157 0.740 10000.000 0.000 -1.505
76 228.00 1500.00 135 167 0.740 10000.000 0.000 -1.505
77 231.00 1500.00 113 206 0.740 10000.000 0.000 -1.505
78 234.00 1500.00 138 248 0.740 10000.000 0.000 -1.505
79 237.00 1500.00 130 228 0.740 10000.000 0.000 -1.505
80 240.00 1500.00 120 235 0.740 10000.000 0.000 -1.505
81 243.00 1500.00 138 262 0.740 10000.000 0.000 -1.505
82 246.00 1500.00 137 268 0.740 10000.000 0.000 -1.505
83 249.00 1500.00 130 275 0.740 10000.000 0.000 -1.505
84 252.00 1500.00 141 269 0.740 10000.000 0.000 -1.505
85 255.00 1500.00 138 243 0.740 10000.000 0.000 -1.505
86 258.00 1500.00 139 247 0.740 10000.000 0.000 -1.505
87 261.00 1500.00 143 232 0.740 10000.000 0.000 -1.505
88 264.00 1500.00 176 216 0.740 10000.000 0.000 -1.505
89 267.00 1500.00 168 203 0.740 10000.000 0.000 -1.505
90 270.00 1500.00 165 196 0.740 10000.000 0.000 -1.505
91 273.00 1500.00 180 145 0.740 10000.000 0.000 -1.505
92 276.00 1500.00 202 150 0.740 10000.000 0.000 -1.505
93 279.00 1500.00 179 130 0.740 10000.000 0.000 -1.505
94 282.00 1500.00 181 155 0.740 10000.000 0.000 -1.505
95 285.00 1500.00 162 152 0.740 10000.000 0.000 -1.505
96 288.00 1500.00 160 144 0.740 10000.000 0.000 -1.505
97 291.00 1500.00 155 154 0.740 10000.000 0.000 -1.505
98 294.00 1500.00 187 114 0.740 10000.000 0.000 -1.505
99 297.00 1500.00 150 124 0.740 10000.000 0.000 -1.505
100 300.00 1500.00 168 139 0.740 10000.000 0.000 -1.505
101 303.00 1500.00 139 119 0.740 10000.000 0.000 -1.505
102 306.00 1500.00 169 143 0.740 10000.000 0.000 -1.505
103 309.00 1500.00 133 118 0.740 10000.000 0.000 -1.505
104 312.00 1500.00 145 124 0.740 10000.000 0.000 -1.505
105 315.00 1500.00 151 130 0.740 10000.000 0.000 -1.505
106 318.00 1500.00 181 171 0.740 10000.000 0.000 -1.505
107 321.00 1500.00 167 155 0.740 10000.000 0.000 -1.505
108 324.00 1500.00 195 170 0.740 10000.000 0.000 -1.505
109 327.00 1500.00 149 186 0.740 10000.000 0.000 -1.505
110 330.00 1500.00 200 197 0.740 10000.000 0.000 -1.505
111 333.00 1500.00 191 222 0.740 10000.000 0.000 -1.505
112 336.00 1500.00 168 203 0.740 10000.000 0.000 -1.505
113 339.00 1500.00 178 245 0.740 10000.000 0.000 -1.505
114 342.00 1500.00 191 234 0.740 10000.000 0.000 -1.505
115 345.00 1500.00 148 247 0.740 10000.000 0.000 -1.505
116 348.00 1500.00 148 276 0.740 10000.000 0.000 -1.505
117 351.00 1500.00 162 278 0.740 10000.000 0.000 -1.505
118 354.00 1500.00 153 244 0.740 10000.000 0.000 -1.505
119 357.00 1500.00 134 224 0.740 10000.000 0.000 -1.505
120 360.00 1500.00 158 231 0.740 10000.000 0.000 -1.505
121 363.00 1500.00 134 253 0.740 10000.000 0.000 -1.505
122 366.00 1500.00 123 216 0.740 10000.000 0.000 -1.505
123 369.00 1500.00 125 189 0.740 10000.000 0.000 -1.505
124 372.00 1500.00 117 171 0.740 10000.000 0.000 -1.505
125 375.00 1500.00 137 163 0.740 10000.000 0.000 -1.505
126 378.00 1500.00 131 152 0.740 10000.000 0.000 -1.505
127 381.00 1500.00 135 154 0.740 10000.000 0.000 -1.505
128 384.00 1500.00 141 174 0.740 10000.000 0.000 -1.505
129 387.00 1500.00 137 159 0.740 10000.000 0.000 -1.505
130 390.00 1500.00 152 140 0.740 10000.000 0.000 -1.505
131 393.00 1500.00 141 128 0.740 10000.000 0.000 -1.505
132 396.00 1500.00 172 140 0.740 10000.000 0.000 -1.505
133 399.00 1500.00 147 137 0.740 10000.000 0.000 -1.505
134 402.00 1500.00 170 135 0.740 10000.000 0.000 -1.505
135 405.00 1500.00 182 128 0.740 10000.000 0.000 -1.505
136 408.00 1500.00 196 140 0.740 10000.000 0.000 -1.505
137 411.00 1500.00 180 111 0.740 10000.000 0.000 -1.505
138 414.00 1500.00 189 137 0.740 10000.000 0.000 -1.505
139 417.00 1500.00 186 137 0.740 10000.000 0.000 -1.505
140 420.00 1500.00 170 165 0.740 10000.000 0.000 -1.505
141 423.00 1500.00 164 193 0.740 10000.000 0.000 -1.505
142 426.00 1500.00 187 170 0.740 10000.000 0.000 -1.505
143 429.00 1500.00 199 228 0.740 10000.000 0.000 -1.505
144 432.00 1500.00 181 223 0.740 10000.000 0.000 -1.505
