# BinNR microsec tot-time (s)  O-Beam AUX Ampl(V) f(Hz) phase(deg) chi(pos)
0 0.00 1500.01 208 477 0.740 10000.000 0.000 0.000
1 3.00 1500.01 416 1060 0.740 10000.000 0.000 0.000
2 6.00 1500.01 398 1080 0.740 10000.000 0.000 0.000
3 9.00 1500.01 395 1068 0.740 10000.000 0.000 0.000
4 12.00 1500.01 398 1031 0.740 10000.000 0.000 0.000
5 15.00 1500.01 376 1018 0.740 10000.000 0.000 0.000
6 18.00 1500.01 389 955 0.740 10000.000 0.000 0.000
7 21.00 1500.01 397 963 0.740 10000.000 0.000 0.000
8 24.00 1500.01 406 977 0.740 10000.000 0.000 0.000
9 27.00 1500.01 358 988 0.740 10000.000 0.000 0.000
10 30.00 1500.01 378 947 0.740 10000.000 0.000 0.000
11 33.00 1500.01 398 952 0.740 10000.000 0.000 0.000
12 36.00 1500.01 375 968 0.740 10000.000 0.000 0.000
13 39.00 1500.01 346 901 0.740 10000.000 0.000 0.000
14 42.00 1500.01 385 919 0.740 10000.000 0.000 0.000
15 45.00 1500.01 361 969 0.740 10000.000 0.000 0.000
16 48.00 1500.01 375 1047 0.740 10000.000 0.000 0.000
17 51.00 1500.01 367 1014 0.740 10000.000 0.000 0.000
18 54.00 1500.01 370 1041 0.740 10000.000 0.000 0.000
19 57.00 1500.01 409 1108 0.740 10000.000 0.000 0.000
20 60.00 1500.01 392 1028 0.740 10000.000 0.000 0.000
21 63.00 1500.01 425 991 0.740 10000.000 0.000 0.000
22 66.00 1500.01 405 1026 0.740 10000.000 0.000 0.000
23 69.00 1500.01 398 995 0.740 10000.000 0.000 0.000
24 72.00 1500.01 428 990 0.740 10000.000 0.000 0.000
25 75.00 1500.01 413 927 0.740 10000.000 0.000 0.000
26 78.00 1500.01 423 929 0.740 10000.000 0.000 0.000
27 81.00 1500.01 446 855 0.740 10000.000 0.000 0.000
28 84.00 1500.01 411 878 0.740 10000.000 0.000 0.000
29 87.00 1500.01 391 830 0.740 10000.000 0.000 0.000
30 90.00 1500.01 391 805 0.740 10000.000 0.000 0.000
31 93.00 1500.01 388 763 0.740 10000.000 0.000 0.000
32 96.00 1500.01 425 756 0.740 10000.000 0.000 0.000
33 99.00 1500.01 402 808 0.740 10000.000 0.000 0.000
34 102.00 1500.01 410 766 0.740 10000.000 0.000 0.000
35 105.00 1500.01 362 800 0.740 10000.000 0.000 0.000
36 108.00 1500.01 388 793 0.740 10000.000 0.000 0.000
37 111.00 1500.01 403 775 0.740 10000.000 0.000 0.000
38 114.00 1500.01 417 881 0.740 10000.000 0.000 0.000
39 117.00 1500.01 383 901 0.740 10000.000 0.000 0.000
40 120.00 1500.01 381 904 0.740 10000.000 0.000 0.000
41 123.00 1500.01 378 893 0.740 10000.000 0.000 0.000
42 126.00 1500.01 379 938 0.740 10000.000 0.000 0.000
43 129.00 1500.01 376 1022 0.740 10000.000 0.000 0.000
44 132.00 1500.01 382 1018 0.740 10000.000 0.000 0.000
45 135.00 1500.01 339 1070 0.740 10000.000 0.000 0.000
46 138.00 1500.01 372 1100 0.740 10000.000 0.000 0.000
47 141.00 1500.01 368 1114 0.740 10000.000 0.000 0.000
48 144.00 1500.01 399 1051 0.740 10000.000 0.000 0.000
49 147.00 1500.01 374 1116 0.740 10000.000 0.000 0.000
50 150.00 1500.01 382 1125 0.740 10000.000 0.000 0.000
51 153.00 1500.01 391 1031 0.740 10000.000 0.000 0.000
52 156.00 1500.01 386 1034 0.740 10000.000 0.000 0.000
53 159.00 1500.01 380 1083 0.740 10000.000 0.000 0.000
54 162.00 1500.01 436 1048 0.740 10000.000 0.000 0.000
55 165.00 1500.01 405 1044 0.740 10000.000 0.000 0.000
56 168.00 1500.01 408 1061 0.740 10000.000 0.000 0.000
57 171.00 1500.01 422 961 0.740 10000.000 0.000 0.000
58 174.00 1500.01 380 1000 0.740 10000.000 0.000 0.000
59 177.00 1500.01 444 910 0.740 10000.000 0.000 0.000
60 180.00 1500.01 411 839 0.740 10000.000 0.000 0.000
61 183.00 1500.01 414 872 0.740 10000.000 0.000 0.000
62 186.00 1500.01 404 833 0.740 10000.000 0.000 0.000
63 189.00 1500.01 437 799 0.740 10000.000 0.000 0.000
64 192.00 1500.01 474 780 0.740 10000.000 0.000 0.000
65 195.00 1500.01 418 747 0.740 10000.000 0.000 0.000
66 198.00 1500.01 420 806 0.740 10000.000 0.000 0.000
67 201.00 1500.01 439 797 0.740 10000.000 0.000 0.000
68 204.00 1500.01 412 760 0.740 10000.000 0.000 0.000
69 207.00 1500.01 370 807 0.740 10000.000 0.000 0.000
70 210.00 1500.01 411 816 0.740 10000.000 0.000 0.000
71 213.00 1500.01 392 811 0.740 10000.000 0.000 0.000
72 216.00 1500.01 375 888 0.740 10000.000 0.000 0.000
73 219.00 1500.01 401 944 0.740 10000.000 0.000 0.000
74 222.00 1500.01 371 979 0.740 10000.000 0.000 0.000
75 225.00 1500.01 374 898 0.740 10000.000 0.000 0.000
76 228.00 1500.01 394 1011 0.740 10000.000 0.000 0.000
77 231.00 1500.01 371 1038 0.740 10000.000 0.000 0.000
78 234.00 1500.01 344 1093 0.740 10000.000 0.000 0.000
79 237.00 1500.01 376 1014 0.740 10000.000 0.000 0.000
80 240.00 1500.01 376 1048 0.740 10000.000 0.000 0.000
81 243.00 1500.01 340 1078 0.740 10000.000 0.000 0.000
82 246.00 1500.01 367 1082 0.740 10000.000 0.000 0.000
83 249.00 1500.01 387 1035 0.740 10000.000 0.000 0.000
84 252.00 1500.01 384 1057 0.740 10000.000 0.000 0.000
85 255.00 1500.01 385 1058 0.740 10000.000 0.000 0.000
86 258.00 1500.01 401 1057 0.740 10000.000 0.000 0.000
87 261.00 1500.01 389 1052 0.740 10000.000 0.000 0.000
88 264.00 1500.01 378 1137 0.740 10000.000 0.000 0.000
89 267.00 1500.01 388 999 0.740 10000.000 0.000 0.000
90 270.00 1500.01 395 1000 0.740 10000.000 0.000 0.000
91 273.00 1500.01 428 998 0.740 10000.000 0.000 0.000
92 276.00 1500.01 445 932 0.740 10000.000 0.000 0.000
93 279.00 1500.01 444 852 0.740 10000.000 0.000 0.000
94 282.00 1500.01 476 858 0.740 10000.000 0.000 0.000
95 285.00 1500.01 360 785 0.740 10000.000 0.000 0.000
96 288.00 1500.01 409 886 0.740 10000.000 0.000 0.000
97 291.00 1500.01 422 757 0.740 10000.000 0.000 0.000
98 294.00 1500.01 375 759 0.740 10000.000 0.000 0.000
99 297.00 1500.01 404 791 0.740 10000.000 0.000 0.000
100 300.00 1500.01 435 780 0.740 10000.000 0.000 0.000
101 303.00 1500.01 382 808 0.740 10000.000 0.000 0.000
102 306.00 1500.01 435 816 0.740 10000.000 0.000 0.000
103 309.00 1500.01 405 831 0.740 10000.000 0.000 0.000
104 312.00 1500.01 416 806 0.740 10000.000 0.000 0.000
105 315.00 1500.01 414 895 0.740 10000.000 0.000 0.000
106 318.00 1500.01 407 952 0.740 10000.000 0.000 0.000
107 321.00 1500.01 447 945 0.740 10000.000 0.000 0.000
108 324.00 1500.01 410 950 0.740 10000.000 0.000 0.000
109 327.00 1500.01 426 967 0.740 10000.000 0.000 0.000
110 330.00 1500.01 426 1006 0.740 10000.000 0.000 0.000
111 333.00 1500.01 391 1040 0.740 10000.000 0.000 0.000
112 336.00 1500.01 423 1095 0.740 10000.000 0.000 0.000
113 339.00 1500.01 426 1014 0.740 10000.000 0.000 0.000
114 342.00 1500.01 408 1064 0.740 10000.000 0.000 0.000
115 345.00 1500.01 400 1061 0.740 10000.000 0.000 0.000
116 348.00 1500.01 421 1053 0.740 10000.000 0.000 0.000
117 351.00 1500.01 390 1047 0.740 10000.000 0.000 0.000
118 354.00 1500.01 372 1158 0.740 10000.000 0.000 0.000
119 357.00 1500.01 382 1060 0.740 10000.000 0.000 0.000
120 360.00 1500.01 372 1075 0.740 10000.000 0.000 0.000
121 363.00 1500.01 323 984 0.740 10000.000 0.000 0.000
122 366.00 1500.01 367 1041 0.740 10000.000 0.000 0.000
123 369.00 1500.01 372 1017 0.740 10000.000 0.000 0.000
124 372.00 1500.01 380 933 0.740 10000.000 0.000 0.000
125 375.00 1500.01 378 944 0.740 10000.000 0.000 0.000
126 378.00 1500.01 354 859 0.740 10000.000 0.000 0.000
127 381.00 1500.01 338 865 0.740 10000.000 0.000 0.000
128 384.00 1500.01 358 804 0.740 10000.000 0.000 0.000
129 387.00 1500.01 388 793 0.740 10000.000 0.000 0.000
130 390.00 1500.01 386 830 0.740 10000.000 0.000 0.000
131 393.00 1500.01 415 785 0.740 10000.000 0.000 0.000
132 396.00 1500.01 388 801 0.740 10000.000 0.000 0.000
133 399.00 1500.01 378 771 0.740 10000.000 0.000 0.000
134 402.00 1500.01 427 726 0.740 10000.000 0.000 0.000
135 405.00 1500.01 387 806 0.740 10000.000 0.000 0.000
136 408.00 1500.01 404 814 0.740 10000.000 0.000 0.000
137 411.00 1500.01 403 804 0.740 10000.000 0.000 0.000
138 414.00 1500.01 436 894 0.740 10000.000 0.000 0.000
139 417.00 1500.01 392 860 0.740 10000.000 0.000 0.000
140 420.00 1500.01 444 947 0.740 10000.000 0.000 0.000
141 423.00 1500.01 392 930 0.740 10000.000 0.000 0.000
142 426.00 1500.01 396 992 0.740 10000.000 0.000 0.000
143 429.00 1500.01 392 1017 0.740 10000.000 0.000 0.000
144 432.00 1500.01 416 1037 0.740 10000.000 0.000 0.000
