# BinNR microsec tot-time (s)  O-Beam AUX Ampl(V) f(Hz) phase(deg) chi(pos)
0 0.00 1500.03 205 606 0.740 10000.000 0.000 -0.330
1 3.00 1500.03 436 1215 0.740 10000.000 0.000 -0.330
2 6.00 1500.03 388 1271 0.740 10000.000 0.000 -0.330
3 9.00 1500.03 432 1213 0.740 10000.000 0.000 -0.330
4 12.00 1500.03 406 1215 0.740 10000.000 0.000 -0.330
5 15.00 1500.03 424 1214 0.740 10000.000 0.000 -0.330
6 18.00 1500.03 409 1255 0.740 10000.000 0.000 -0.330
7 21.00 1500.03 420 1246 0.740 10000.000 0.000 -0.330
8 24.00 1500.03 416 1237 0.740 10000.000 0.000 -0.330
9 27.00 1500.03 429 1208 0.740 10000.000 0.000 -0.330
10 30.00 1500.03 454 1253 0.740 10000.000 0.000 -0.330
11 33.00 1500.03 458 1225 0.740 10000.000 0.000 -0.330
12 36.00 1500.03 420 1259 0.740 10000.000 0.000 -0.330
13 39.00 1500.03 401 1212 0.740 10000.000 0.000 -0.330
14 42.00 1500.03 456 1242 0.740 10000.000 0.000 -0.330
15 45.00 1500.03 455 1246 0.740 10000.000 0.000 -0.330
16 48.00 1500.03 432 1284 0.740 10000.000 0.000 -0.330
17 51.00 1500.03 449 1236 0.740 10000.000 0.000 -0.330
18 54.00 1500.03 364 1285 0.740 10000.000 0.000 -0.330
19 57.00 1500.03 409 1224 0.740 10000.000 0.000 -0.330
20 60.00 1500.03 462 1236 0.740 10000.000 0.000 -0.330
21 63.00 1500.03 406 1263 0.740 10000.000 0.000 -0.330
22 66.00 1500.03 408 1220 0.740 10000.000 0.000 -0.330
23 69.00 1500.03 412 1258 0.740 10000.000 0.000 -0.330
24 72.00 1500.03 415 1216 0.740 10000.000 0.000 -0.330
25 75.00 1500.03 421 1191 0.740 10000.000 0.000 -0.330
26 78.00 1500.03 425 1204 0.740 10000.000 0.000 -0.330
27 81.00 1500.03 404 1171 0.740 10000.000 0.000 -0.330
28 84.00 1500.03 411 1194 0.740 10000.000 0.000 -0.330
29 87.00 1500.03 394 1208 0.740 10000.000 0.000 -0.330
30 90.00 1500.03 430 1189 0.740 10000.000 0.000 -0.330
31 93.00 1500.03 424 1214 0.740 10000.000 0.000 -0.330
32 96.00 1500.03 403 1141 0.740 10000.000 0.000 -0.330
33 99.00 1500.03 438 1202 0.740 10000.000 0.000 -0.330
34 102.00 1500.03 451 1210 0.740 10000.000 0.000 -0.330
35 105.00 1500.03 402 1164 0.740 10000.000 0.000 -0.330
36 108.00 1500.03 424 1254 0.740 10000.000 0.000 -0.330
37 111.00 1500.03 432 1166 0.740 10000.000 0.000 -0.330
38 114.00 1500.03 442 1260 0.740 10000.000 0.000 -0.330
39 117.00 1500.03 426 1284 0.740 10000.000 0.000 -0.330
40 120.00 1500.03 443 1277 0.740 10000.000 0.000 -0.330
41 123.00 1500.03 413 1171 0.740 10000.000 0.000 -0.330
42 126.00 1500.03 391 1247 0.740 10000.000 0.000 -0.330
43 129.00 1500.03 439 1221 0.740 10000.000 0.000 -0.330
44 132.00 1500.03 445 1281 0.740 10000.000 0.000 -0.330
45 135.00 1500.03 447 1151 0.740 10000.000 0.000 -0.330
46 138.00 1500.03 443 1230 0.740 10000.000 0.000 -0.330
47 141.00 1500.03 439 1142 0.740 10000.000 0.000 -0.330
48 144.00 1500.03 426 1213 0.740 10000.000 0.000 -0.330
49 147.00 1500.03 414 1171 0.740 10000.000 0.000 -0.330
50 150.00 1500.03 441 1250 0.740 10000.000 0.000 -0.330
51 153.00 1500.03 421 1276 0.740 10000.000 0.000 -0.330
52 156.00 1500.03 455 1218 0.740 10000.000 0.000 -0.330
53 159.00 1500.03 427 1173 0.740 10000.000 0.000 -0.330
54 162.00 1500.03 445 1170 0.740 10000.000 0.000 -0.330
55 165.00 1500.03 438 1203 0.740 10000.000 0.000 -0.330
56 168.00 1500.03 376 1247 0.740 10000.000 0.000 -0.330
57 171.00 1500.03 388 1168 0.740 10000.000 0.000 -0.330
58 174.00 1500.03 434 1198 0.740 10000.000 0.000 -0.330
59 177.00 1500.03 418 1253 0.740 10000.000 0.000 -0.330
60 180.00 1500.03 418 1282 0.740 10000.000 0.000 -0.330
61 183.00 1500.03 424 1223 0.740 10000.000 0.000 -0.330
62 186.00 1500.03 411 1289 0.740 10000.000 0.000 -0.330
63 189.00 1500.03 386 1210 0.740 10000.000 0.000 -0.330
64 192.00 1500.03 399 1171 0.740 10000.000 0.000 -0.330
65 195.00 1500.03 393 1127 0.740 10000.000 0.000 -0.330
66 198.00 1500.03 410 1149 0.740 10000.000 0.000 -0.330
67 201.00 1500.03 404 1151 0.740 10000.000 0.000 -0.330
68 204.00 1500.03 407 1117 0.740 10000.000 0.000 -0.330
69 207.00 1500.03 397 1158 0.740 10000.000 0.000 -0.330
70 210.00 1500.03 430 1203 0.740 10000.000 0.000 -0.330
71 213.00 1500.03 441 1234 0.740 10000.000 0.000 -0.330
72 216.00 1500.03 392 1200 0.740 10000.000 0.000 -0.330
73 219.00 1500.03 429 1210 0.740 10000.000 0.000 -0.330
74 222.00 1500.03 437 1213 0.740 10000.000 0.000 -0.330
75 225.00 1500.03 379 1191 0.740 10000.000 0.000 -0.330
76 228.00 1500.03 450 1223 0.740 10000.000 0.000 -0.330
77 231.00 1500.03 419 1228 0.740 10000.000 0.000 -0.330
78 234.00 1500.03 465 1252 0.740 10000.000 0.000 -0.330
79 237.00 1500.03 402 1179 0.740 10000.000 0.000 -0.330
80 240.00 1500.03 467 1185 0.740 10000.000 0.000 -0.330
81 243.00 1500.03 417 1174 0.740 10000.000 0.000 -0.330
82 246.00 1500.03 457 1226 0.740 10000.000 0.000 -0.330
83 249.00 1500.03 441 1113 0.740 10000.000 0.000 -0.330
84 252.00 1500.03 422 1179 0.740 10000.000 0.000 -0.330
85 255.00 1500.03 383 1202 0.740 10000.000 0.000 -0.330
86 258.00 1500.03 398 1306 0.740 10000.000 0.000 -0.330
87 261.00 1500.03 405 1198 0.740 10000.000 0.000 -0.330
88 264.00 1500.03 446 1223 0.740 10000.000 0.000 -0.330
89 267.00 1500.03 415 1225 0.740 10000.000 0.000 -0.330
90 270.00 1500.03 422 1237 0.740 10000.000 0.000 -0.330
91 273.00 1500.03 415 1227 0.740 10000.000 0.000 -0.330
92 276.00 1500.03 461 1240 0.740 10000.000 0.000 -0.330
93 279.00 1500.03 405 1257 0.740 10000.000 0.000 -0.330
94 282.00 1500.03 426 1235 0.740 10000.000 0.000 -0.330
95 285.00 1500.03 412 1204 0.740 10000.000 0.000 -0.330
96 288.00 1500.03 393 1181 0.740 10000.000 0.000 -0.330
97 291.00 1500.03 432 1251 0.740 10000.000 0.000 -0.330
98 294.00 1500.03 408 1165 0.740 10000.000 0.000 -0.330
99 297.00 1500.03 411 1198 0.740 10000.000 0.000 -0.330
100 300.00 1500.03 408 1211 0.740 10000.000 0.000 -0.330
101 303.00 1500.03 419 1157 0.740 10000.000 0.000 -0.330
102 306.00 1500.03 446 1205 0.740 10000.000 0.000 -0.330
103 309.00 1500.03 404 1200 0.740 10000.000 0.000 -0.330
104 312.00 1500.03 368 1165 0.740 10000.000 0.000 -0.330
105 315.00 1500.03 435 1194 0.740 10000.000 0.000 -0.330
106 318.00 1500.03 426 1223 0.740 10000.000 0.000 -0.330
107 321.00 1500.03 412 1239 0.740 10000.000 0.000 -0.330
108 324.00 1500.03 415 1232 0.740 10000.000 0.000 -0.330
109 327.00 1500.03 395 1273 0.740 10000.000 0.000 -0.330
110 330.00 1500.03 399 1270 0.740 10000.000 0.000 -0.330
111 333.00 1500.03 444 1182 0.740 10000.000 0.000 -0.330
112 336.00 1500.03 416 1207 0.740 10000.000 0.000 -0.330
113 339.00 1500.03 398 1179 0.740 10000.000 0.000 -0.330
114 342.00 1500.03 429 1160 0.740 10000.000 0.000 -0.330
115 345.00 1500.03 402 1182 0.740 10000.000 0.000 -0.330
116 348.00 1500.03 434 1213 0.740 10000.000 0.000 -0.330
117 351.00 1500.03 424 1156 0.740 10000.000 0.000 -0.330
118 354.00 1500.03 414 1221 0.740 10000.000 0.000 -0.330
119 357.00 1500.03 413 1206 0.740 10000.000 0.000 -0.330
120 360.00 1500.03 403 1278 0.740 10000.000 0.000 -0.330
121 363.00 1500.03 416 1151 0.740 10000.000 0.000 -0.330
122 366.00 1500.03 463 1292 0.740 10000.000 0.000 -0.330
123 369.00 1500.03 430 1209 0.740 10000.000 0.000 -0.330
124 372.00 1500.03 436 1220 0.740 10000.000 0.000 -0.330
125 375.00 1500.03 426 1274 0.740 10000.000 0.000 -0.330
126 378.00 1500.03 428 1205 0.740 10000.000 0.000 -0.330
127 381.00 1500.03 454 1170 0.740 10000.000 0.000 -0.330
128 384.00 1500.03 449 1249 0.740 10000.000 0.000 -0.330
129 387.00 1500.03 388 1241 0.740 10000.000 0.000 -0.330
130 390.00 1500.03 463 1215 0.740 10000.000 0.000 -0.330
131 393.00 1500.03 388 1189 0.740 10000.000 0.000 -0.330
132 396.00 1500.03 410 1179 0.740 10000.000 0.000 -0.330
133 399.00 1500.03 404 1202 0.740 10000.000 0.000 -0.330
134 402.00 1500.03 405 1267 0.740 10000.000 0.000 -0.330
135 405.00 1500.03 397 1161 0.740 10000.000 0.000 -0.330
136 408.00 1500.03 441 1172 0.740 10000.000 0.000 -0.330
137 411.00 1500.03 371 1125 0.740 10000.000 0.000 -0.330
138 414.00 1500.03 362 1168 0.740 10000.000 0.000 -0.330
139 417.00 1500.03 383 1241 0.740 10000.000 0.000 -0.330
140 420.00 1500.03 395 1226 0.740 10000.000 0.000 -0.330
141 423.00 1500.03 443 1251 0.740 10000.000 0.000 -0.330
142 426.00 1500.03 419 1237 0.740 10000.000 0.000 -0.330
143 429.00 1500.03 429 1222 0.740 10000.000 0.000 -0.330
144 432.00 1500.03 426 1226 0.740 10000.000 0.000 -0.330
