# BinNR microsec tot-time (s)  O-Beam AUX Ampl(V) f(Hz) phase(deg) chi(pos)
0 0.00 1500.01 78 292 0.740 10000.000 0.000 -0.835
1 3.00 1500.01 190 605 0.740 10000.000 0.000 -0.835
2 6.00 1500.01 203 636 0.740 10000.000 0.000 -0.835
3 9.00 1500.01 220 636 0.740 10000.000 0.000 -0.835
4 12.00 1500.01 241 633 0.740 10000.000 0.000 -0.835
5 15.00 1500.01 229 603 0.740 10000.000 0.000 -0.835
6 18.00 1500.01 253 664 0.740 10000.000 0.000 -0.835
7 21.00 1500.01 250 721 0.740 10000.000 0.000 -0.835
8 24.00 1500.01 267 769 0.740 10000.000 0.000 -0.835
9 27.00 1500.01 242 692 0.740 10000.000 0.000 -0.835
10 30.00 1500.01 249 744 0.740 10000.000 0.000 -0.835
11 33.00 1500.01 281 725 0.740 10000.000 0.000 -0.835
12 36.00 1500.01 259 754 0.740 10000.000 0.000 -0.835
13 39.00 1500.01 255 763 0.740 10000.000 0.000 -0.835
14 42.00 1500.01 227 742 0.740 10000.000 0.000 -0.835
15 45.00 1500.01 261 703 0.740 10000.000 0.000 -0.835
16 48.00 1500.01 255 689 0.740 10000.000 0.000 -0.835
17 51.00 1500.01 253 680 0.740 10000.000 0.000 -0.835
18 54.00 1500.01 227 682 0.740 10000.000 0.000 -0.835
19 57.00 1500.01 206 645 0.740 10000.000 0.000 -0.835
20 60.00 1500.01 212 661 0.740 10000.000 0.000 -0.835
21 63.00 1500.01 207 648 0.740 10000.000 0.000 -0.835
22 66.00 1500.01 212 661 0.740 10000.000 0.000 -0.835
23 69.00 1500.01 174 667 0.740 10000.000 0.000 -0.835
24 72.00 1500.01 207 716 0.740 10000.000 0.000 -0.835
25 75.00 1500.01 192 740 0.740 10000.000 0.000 -0.835
26 78.00 1500.01 193 802 0.740 10000.000 0.000 -0.835
27 81.00 1500.01 187 830 0.740 10000.000 0.000 -0.835
28 84.00 1500.01 181 864 0.740 10000.000 0.000 -0.835
29 87.00 1500.01 154 863 0.740 10000.000 0.000 -0.835
30 90.00 1500.01 182 866 0.740 10000.000 0.000 -0.835
31 93.00 1500.01 167 889 0.740 10000.000 0.000 -0.835
32 96.00 1500.01 168 951 0.740 10000.000 0.000 -0.835
33 99.00 1500.01 182 888 0.740 10000.000 0.000 -0.835
34 102.00 1500.01 192 913 0.740 10000.000 0.000 -0.835
35 105.00 1500.01 196 867 0.740 10000.000 0.000 -0.835
36 108.00 1500.01 203 907 0.740 10000.000 0.000 -0.835
37 111.00 1500.01 214 853 0.740 10000.000 0.000 -0.835
38 114.00 1500.01 215 779 0.740 10000.000 0.000 -0.835
39 117.00 1500.01 228 836 0.740 10000.000 0.000 -0.835
40 120.00 1500.01 245 784 0.740 10000.000 0.000 -0.835
41 123.00 1500.01 263 714 0.740 10000.000 0.000 -0.835
42 126.00 1500.01 247 689 0.740 10000.000 0.000 -0.835
43 129.00 1500.01 248 658 0.740 10000.000 0.000 -0.835
44 132.00 1500.01 263 664 0.740 10000.000 0.000 -0.835
45 135.00 1500.01 282 657 0.740 10000.000 0.000 -0.835
46 138.00 1500.01 239 603 0.740 10000.000 0.000 -0.835
47 141.00 1500.01 249 573 0.740 10000.000 0.000 -0.835
48 144.00 1500.01 251 559 0.740 10000.000 0.000 -0.835
49 147.00 1500.01 251 564 0.740 10000.000 0.000 -0.835
50 150.00 1500.01 230 557 0.740 10000.000 0.000 -0.835
51 153.00 1500.01 202 576 0.740 10000.000 0.000 -0.835
52 156.00 1500.01 209 591 0.740 10000.000 0.000 -0.835
53 159.00 1500.01 232 625 0.740 10000.000 0.000 -0.835
54 162.00 1500.01 203 634 0.740 10000.000 0.000 -0.835
55 165.00 1500.01 201 634 0.740 10000.000 0.000 -0.835
56 168.00 1500.01 175 682 0.740 10000.000 0.000 -0.835
57 171.00 1500.01 191 669 0.740 10000.000 0.000 -0.835
58 174.00 1500.01 165 778 0.740 10000.000 0.000 -0.835
59 177.00 1500.01 177 813 0.740 10000.000 0.000 -0.835
60 180.00 1500.01 195 819 0.740 10000.000 0.000 -0.835
61 183.00 1500.01 168 796 0.740 10000.000 0.000 -0.835
62 186.00 1500.01 203 926 0.740 10000.000 0.000 -0.835
63 189.00 1500.01 198 851 0.740 10000.000 0.000 -0.835
64 192.00 1500.01 184 883 0.740 10000.000 0.000 -0.835
65 195.00 1500.01 166 854 0.740 10000.000 0.000 -0.835
66 198.00 1500.01 200 957 0.740 10000.000 0.000 -0.835
67 201.00 1500.01 192 891 0.740 10000.000 0.000 -0.835
68 204.00 1500.01 223 930 0.740 10000.000 0.000 -0.835
69 207.00 1500.01 195 847 0.740 10000.000 0.000 -0.835
70 210.00 1500.01 222 859 0.740 10000.000 0.000 -0.835
71 213.00 1500.01 233 839 0.740 10000.000 0.000 -0.835
72 216.00 1500.01 238 806 0.740 10000.000 0.000 -0.835
73 219.00 1500.01 249 778 0.740 10000.000 0.000 -0.835
74 222.00 1500.01 236 744 0.740 10000.000 0.000 -0.835
75 225.00 1500.01 275 693 0.740 10000.000 0.000 -0.835
76 228.00 1500.01 270 692 0.740 10000.000 0.000 -0.835
77 231.00 1500.01 302 624 0.740 10000.000 0.000 -0.835
78 234.00 1500.01 266 603 0.740 10000.000 0.000 -0.835
79 237.00 1500.01 270 605 0.740 10000.000 0.000 -0.835
80 240.00 1500.01 235 564 0.740 10000.000 0.000 -0.835
81 243.00 1500.01 249 594 0.740 10000.000 0.000 -0.835
82 246.00 1500.01 246 541 0.740 10000.000 0.000 -0.835
83 249.00 1500.01 241 517 0.740 10000.000 0.000 -0.835
84 252.00 1500.01 228 582 0.740 10000.000 0.000 -0.835
85 255.00 1500.01 246 556 0.740 10000.000 0.000 -0.835
86 258.00 1500.01 231 589 0.740 10000.000 0.000 -0.835
87 261.00 1500.01 236 645 0.740 10000.000 0.000 -0.835
88 264.00 1500.01 214 630 0.740 10000.000 0.000 -0.835
89 267.00 1500.01 210 626 0.740 10000.000 0.000 -0.835
90 270.00 1500.01 185 762 0.740 10000.000 0.000 -0.835
91 273.00 1500.01 207 695 0.740 10000.000 0.000 -0.835
92 276.00 1500.01 209 766 0.740 10000.000 0.000 -0.835
93 279.00 1500.01 215 764 0.740 10000.000 0.000 -0.835
94 282.00 1500.01 206 848 0.740 10000.000 0.000 -0.835
95 285.00 1500.01 193 854 0.740 10000.000 0.000 -0.835
96 288.00 1500.01 190 927 0.740 10000.000 0.000 -0.835
97 291.00 1500.01 200 868 0.740 10000.000 0.000 -0.835
98 294.00 1500.01 215 981 0.740 10000.000 0.000 -0.835
99 297.00 1500.01 188 965 0.740 10000.000 0.000 -0.835
100 300.00 1500.01 216 933 0.740 10000.000 0.000 -0.835
101 303.00 1500.01 205 912 0.740 10000.000 0.000 -0.835
102 306.00 1500.01 217 920 0.740 10000.000 0.000 -0.835
103 309.00 1500.01 206 840 0.740 10000.000 0.000 -0.835
104 312.00 1500.01 227 867 0.740 10000.000 0.000 -0.835
105 315.00 1500.01 204 821 0.740 10000.000 0.000 -0.835
106 318.00 1500.01 183 834 0.740 10000.000 0.000 -0.835
107 321.00 1500.01 173 761 0.740 10000.000 0.000 -0.835
108 324.00 1500.01 203 725 0.740 10000.000 0.000 -0.835
109 327.00 1500.01 197 644 0.740 10000.000 0.000 -0.835
110 330.00 1500.01 190 689 0.740 10000.000 0.000 -0.835
111 333.00 1500.01 190 623 0.740 10000.000 0.000 -0.835
112 336.00 1500.01 196 581 0.740 10000.000 0.000 -0.835
113 339.00 1500.01 195 620 0.740 10000.000 0.000 -0.835
114 342.00 1500.01 195 551 0.740 10000.000 0.000 -0.835
115 345.00 1500.01 199 597 0.740 10000.000 0.000 -0.835
116 348.00 1500.01 219 543 0.740 10000.000 0.000 -0.835
117 351.00 1500.01 234 548 0.740 10000.000 0.000 -0.835
118 354.00 1500.01 247 572 0.740 10000.000 0.000 -0.835
119 357.00 1500.01 267 571 0.740 10000.000 0.000 -0.835
120 360.00 1500.01 276 614 0.740 10000.000 0.000 -0.835
121 363.00 1500.01 244 615 0.740 10000.000 0.000 -0.835
122 366.00 1500.01 272 696 0.740 10000.000 0.000 -0.835
123 369.00 1500.01 226 751 0.740 10000.000 0.000 -0.835
124 372.00 1500.01 278 699 0.740 10000.000 0.000 -0.835
125 375.00 1500.01 251 773 0.740 10000.000 0.000 -0.835
126 378.00 1500.01 250 794 0.740 10000.000 0.000 -0.835
127 381.00 1500.01 250 809 0.740 10000.000 0.000 -0.835
128 384.00 1500.01 237 831 0.740 10000.000 0.000 -0.835
129 387.00 1500.01 244 890 0.740 10000.000 0.000 -0.835
130 390.00 1500.01 241 902 0.740 10000.000 0.000 -0.835
131 393.00 1500.01 198 877 0.740 10000.000 0.000 -0.835
132 396.00 1500.01 206 938 0.740 10000.000 0.000 -0.835
133 399.00 1500.01 211 868 0.740 10000.000 0.000 -0.835
134 402.00 1500.01 225 900 0.740 10000.000 0.000 -0.835
135 405.00 1500.01 199 917 0.740 10000.000 0.000 -0.835
136 408.00 1500.01 195 874 0.740 10000.000 0.000 -0.835
137 411.00 1500.01 187 831 0.740 10000.000 0.000 -0.835
138 414.00 1500.01 161 864 0.740 10000.000 0.000 -0.835
139 417.00 1500.01 165 797 0.740 10000.000 0.000 -0.835
140 420.00 1500.01 176 750 0.740 10000.000 0.000 -0.835
141 423.00 1500.01 157 758 0.740 10000.000 0.000 -0.835
142 426.00 1500.01 176 745 0.740 10000.000 0.000 -0.835
143 429.00 1500.01 172 651 0.740 10000.000 0.000 -0.835
144 432.00 1500.01 188 698 0.740 10000.000 0.000 -0.835
