# BinNR microsec tot-time (s)  O-Beam AUX Ampl(V) f(Hz) phase(deg) chi(pos)
0 0.00 1500.02 57 67 0.740 10000.000 0.000 0.824
1 3.00 1500.02 103 141 0.740 10000.000 0.000 0.824
2 6.00 1500.02 92 122 0.740 10000.000 0.000 0.824
3 9.00 1500.02 107 118 0.740 10000.000 0.000 0.824
4 12.00 1500.02 97 134 0.740 10000.000 0.000 0.824
5 15.00 1500.02 106 119 0.740 10000.000 0.000 0.824
6 18.00 1500.02 97 139 0.740 10000.000 0.000 0.824
7 21.00 1500.02 98 142 0.740 10000.000 0.000 0.824
8 24.00 1500.02 109 137 0.740 10000.000 0.000 0.824
9 27.00 1500.02 95 176 0.740 10000.000 0.000 0.824
10 30.00 1500.02 103 174 0.740 10000.000 0.000 0.824
11 33.00 1500.02 101 188 0.740 10000.000 0.000 0.824
12 36.00 1500.02 91 182 0.740 10000.000 0.000 0.824
13 39.00 1500.02 105 186 0.740 10000.000 0.000 0.824
14 42.00 1500.02 113 189 0.740 10000.000 0.000 0.824
15 45.00 1500.02 101 151 0.740 10000.000 0.000 0.824
16 48.00 1500.02 97 137 0.740 10000.000 0.000 0.824
17 51.00 1500.02 82 148 0.740 10000.000 0.000 0.824
18 54.00 1500.02 93 142 0.740 10000.000 0.000 0.824
19 57.00 1500.02 99 138 0.740 10000.000 0.000 0.824
20 60.00 1500.02 84 145 0.740 10000.000 0.000 0.824
21 63.00 1500.02 108 137 0.740 10000.000 0.000 0.824
22 66.00 1500.02 91 141 0.740 10000.000 0.000 0.824
23 69.00 1500.02 95 149 0.740 10000.000 0.000 0.824
24 72.00 1500.02 103 130 0.740 10000.000 0.000 0.824
25 75.00 1500.02 102 143 0.740 10000.000 0.000 0.824
26 78.00 1500.02 111 164 0.740 10000.000 0.000 0.824
27 81.00 1500.02 105 173 0.740 10000.000 0.000 0.824
28 84.00 1500.02 92 203 0.740 10000.000 0.000 0.824
29 87.00 1500.02 107 250 0.740 10000.000 0.000 0.824
30 90.00 1500.02 99 258 0.740 10000.000 0.000 0.824
31 93.00 1500.02 101 263 0.740 10000.000 0.000 0.824
32 96.00 1500.02 118 294 0.740 10000.000 0.000 0.824
33 99.00 1500.02 110 269 0.740 10000.000 0.000 0.824
34 102.00 1500.02 105 284 0.740 10000.000 0.000 0.824
35 105.00 1500.02 85 269 0.740 10000.000 0.000 0.824
36 108.00 1500.02 108 235 0.740 10000.000 0.000 0.824
37 111.00 1500.02 83 255 0.740 10000.000 0.000 0.824
38 114.00 1500.02 95 218 0.740 10000.000 0.000 0.824
39 117.00 1500.02 98 203 0.740 10000.000 0.000 0.824
40 120.00 1500.02 102 172 0.740 10000.000 0.000 0.824
41 123.00 1500.02 105 177 0.740 10000.000 0.000 0.824
42 126.00 1500.02 94 151 0.740 10000.000 0.000 0.824
43 129.00 1500.02 108 142 0.740 10000.000 0.000 0.824
44 132.00 1500.02 97 139 0.740 10000.000 0.000 0.824
45 135.00 1500.02 97 136 0.740 10000.000 0.000 0.824
46 138.00 1500.02 103 130 0.740 10000.000 0.000 0.824
47 141.00 1500.02 93 152 0.740 10000.000 0.000 0.824
48 144.00 1500.02 122 117 0.740 10000.000 0.000 0.824
49 147.00 1500.02 97 141 0.740 10000.000 0.000 0.824
50 150.00 1500.02 107 110 0.740 10000.000 0.000 0.824
51 153.00 1500.02 90 113 0.740 10000.000 0.000 0.824
52 156.00 1500.02 92 121 0.740 10000.000 0.000 0.824
53 159.00 1500.02 108 116 0.740 10000.000 0.000 0.824
54 162.00 1500.02 110 131 0.740 10000.000 0.000 0.824
55 165.00 1500.02 93 138 0.740 10000.000 0.000 0.824
56 168.00 1500.02 96 142 0.740 10000.000 0.000 0.824
57 171.00 1500.02 99 177 0.740 10000.000 0.000 0.824
58 174.00 1500.02 104 159 0.740 10000.000 0.000 0.824
59 177.00 1500.02 107 172 0.740 10000.000 0.000 0.824
60 180.00 1500.02 111 209 0.740 10000.000 0.000 0.824
61 183.00 1500.02 127 230 0.740 10000.000 0.000 0.824
62 186.00 1500.02 107 258 0.740 10000.000 0.000 0.824
63 189.00 1500.02 104 222 0.740 10000.000 0.000 0.824
64 192.00 1500.02 117 261 0.740 10000.000 0.000 0.824
65 195.00 1500.02 109 279 0.740 10000.000 0.000 0.824
66 198.00 1500.02 90 293 0.740 10000.000 0.000 0.824
67 201.00 1500.02 105 258 0.740 10000.000 0.000 0.824
68 204.00 1500.02 109 258 0.740 10000.000 0.000 0.824
69 207.00 1500.02 94 228 0.740 10000.000 0.000 0.824
70 210.00 1500.02 97 246 0.740 10000.000 0.000 0.824
71 213.00 1500.02 94 223 0.740 10000.000 0.000 0.824
72 216.00 1500.02 108 201 0.740 10000.000 0.000 0.824
73 219.00 1500.02 113 199 0.740 10000.000 0.000 0.824
74 222.00 1500.02 103 169 0.740 10000.000 0.000 0.824
75 225.00 1500.02 98 167 0.740 10000.000 0.000 0.824
76 228.00 1500.02 113 158 0.740 10000.000 0.000 0.824
77 231.00 1500.02 115 120 0.740 10000.000 0.000 0.824
78 234.00 1500.02 82 129 0.740 10000.000 0.000 0.824
79 237.00 1500.02 101 121 0.740 10000.000 0.000 0.824
80 240.00 1500.02 115 137 0.740 10000.000 0.000 0.824
81 243.00 1500.02 96 107 0.740 10000.000 0.000 0.824
82 246.00 1500.02 96 108 0.740 10000.000 0.000 0.824
83 249.00 1500.02 110 130 0.740 10000.000 0.000 0.824
84 252.00 1500.02 88 135 0.740 10000.000 0.000 0.824
85 255.00 1500.02 101 98 0.740 10000.000 0.000 0.824
86 258.00 1500.02 97 117 0.740 10000.000 0.000 0.824
87 261.00 1500.02 98 113 0.740 10000.000 0.000 0.824
88 264.00 1500.02 113 138 0.740 10000.000 0.000 0.824
89 267.00 1500.02 86 158 0.740 10000.000 0.000 0.824
90 270.00 1500.02 118 144 0.740 10000.000 0.000 0.824
91 273.00 1500.02 103 204 0.740 10000.000 0.000 0.824
92 276.00 1500.02 99 185 0.740 10000.000 0.000 0.824
93 279.00 1500.02 125 209 0.740 10000.000 0.000 0.824
94 282.00 1500.02 96 223 0.740 10000.000 0.000 0.824
95 285.00 1500.02 95 224 0.740 10000.000 0.000 0.824
96 288.00 1500.02 108 235 0.740 10000.000 0.000 0.824
97 291.00 1500.02 105 274 0.740 10000.000 0.000 0.824
98 294.00 1500.02 101 306 0.740 10000.000 0.000 0.824
99 297.00 1500.02 111 269 0.740 10000.000 0.000 0.824
100 300.00 1500.02 122 267 0.740 10000.000 0.000 0.824
101 303.00 1500.02 96 253 0.740 10000.000 0.000 0.824
102 306.00 1500.02 97 252 0.740 10000.000 0.000 0.824
103 309.00 1500.02 101 233 0.740 10000.000 0.000 0.824
104 312.00 1500.02 92 206 0.740 10000.000 0.000 0.824
105 315.00 1500.02 110 227 0.740 10000.000 0.000 0.824
106 318.00 1500.02 110 205 0.740 10000.000 0.000 0.824
107 321.00 1500.02 102 150 0.740 10000.000 0.000 0.824
108 324.00 1500.02 95 180 0.740 10000.000 0.000 0.824
109 327.00 1500.02 98 145 0.740 10000.000 0.000 0.824
110 330.00 1500.02 110 149 0.740 10000.000 0.000 0.824
111 333.00 1500.02 89 107 0.740 10000.000 0.000 0.824
112 336.00 1500.02 115 130 0.740 10000.000 0.000 0.824
113 339.00 1500.02 90 147 0.740 10000.000 0.000 0.824
114 342.00 1500.02 105 101 0.740 10000.000 0.000 0.824
115 345.00 1500.02 87 115 0.740 10000.000 0.000 0.824
116 348.00 1500.02 97 120 0.740 10000.000 0.000 0.824
117 351.00 1500.02 74 133 0.740 10000.000 0.000 0.824
118 354.00 1500.02 110 123 0.740 10000.000 0.000 0.824
119 357.00 1500.02 86 97 0.740 10000.000 0.000 0.824
120 360.00 1500.02 110 138 0.740 10000.000 0.000 0.824
121 363.00 1500.02 114 127 0.740 10000.000 0.000 0.824
122 366.00 1500.02 105 138 0.740 10000.000 0.000 0.824
123 369.00 1500.02 96 159 0.740 10000.000 0.000 0.824
124 372.00 1500.02 101 147 0.740 10000.000 0.000 0.824
125 375.00 1500.02 96 164 0.740 10000.000 0.000 0.824
126 378.00 1500.02 115 190 0.740 10000.000 0.000 0.824
127 381.00 1500.02 107 183 0.740 10000.000 0.000 0.824
128 384.00 1500.02 108 229 0.740 10000.000 0.000 0.824
129 387.00 1500.02 104 238 0.740 10000.000 0.000 0.824
130 390.00 1500.02 100 267 0.740 10000.000 0.000 0.824
131 393.00 1500.02 97 239 0.740 10000.000 0.000 0.824
132 396.00 1500.02 97 274 0.740 10000.000 0.000 0.824
133 399.00 1500.02 104 272 0.740 10000.000 0.000 0.824
134 402.00 1500.02 90 283 0.740 10000.000 0.000 0.824
135 405.00 1500.02 96 261 0.740 10000.000 0.000 0.824
136 408.00 1500.02 108 251 0.740 10000.000 0.000 0.824
137 411.00 1500.02 92 231 0.740 10000.000 0.000 0.824
138 414.00 1500.02 106 220 0.740 10000.000 0.000 0.824
139 417.00 1500.02 98 195 0.740 10000.000 0.000 0.824
140 420.00 1500.02 127 193 0.740 10000.000 0.000 0.824
141 423.00 1500.02 104 163 0.740 10000.000 0.000 0.824
142 426.00 1500.02 120 165 0.740 10000.000 0.000 0.824
143 429.00 1500.02 112 144 0.740 10000.000 0.000 0.824
144 432.00 1500.02 85 149 0.740 10000.000 0.000 0.824
