# BinNR microsec tot-time (s)  O-Beam AUX Ampl(V) f(Hz) phase(deg) chi(pos)
0 0.00 1500.01 118 167 0.740 10000.000 0.000 0.000
1 3.00 1500.01 277 379 0.740 10000.000 0.000 0.000
2 6.00 1500.01 266 382 0.740 10000.000 0.000 0.000
3 9.00 1500.01 269 378 0.740 10000.000 0.000 0.000
4 12.00 1500.01 277 430 0.740 10000.000 0.000 0.000
5 15.00 1500.01 297 394 0.740 10000.000 0.000 0.000
6 18.00 1500.01 282 418 0.740 10000.000 0.000 0.000
7 21.00 1500.01 304 471 0.740 10000.000 0.000 0.000
8 24.00 1500.01 315 460 0.740 10000.000 0.000 0.000
9 27.00 1500.01 317 496 0.740 10000.000 0.000 0.000
10 30.00 1500.01 334 498 0.740 10000.000 0.000 0.000
11 33.00 1500.01 340 507 0.740 10000.000 0.000 0.000
12 36.00 1500.01 344 504 0.740 10000.000 0.000 0.000
13 39.00 1500.01 314 472 0.740 10000.000 0.000 0.000
14 42.00 1500.01 324 539 0.740 10000.000 0.000 0.000
15 45.00 1500.01 306 407 0.740 10000.000 0.000 0.000
16 48.00 1500.01 317 439 0.740 10000.000 0.000 0.000
17 51.00 1500.01 292 406 0.740 10000.000 0.000 0.000
18 54.00 1500.01 273 410 0.740 10000.000 0.000 0.000
19 57.00 1500.01 291 426 0.740 10000.000 0.000 0.000
20 60.00 1500.01 265 400 0.740 10000.000 0.000 0.000
21 63.00 1500.01 269 394 0.740 10000.000 0.000 0.000
22 66.00 1500.01 232 406 0.740 10000.000 0.000 0.000
23 69.00 1500.01 256 447 0.740 10000.000 0.000 0.000
24 72.00 1500.01 240 449 0.740 10000.000 0.000 0.000
25 75.00 1500.01 223 491 0.740 10000.000 0.000 0.000
26 78.00 1500.01 230 528 0.740 10000.000 0.000 0.000
27 81.00 1500.01 221 581 0.740 10000.000 0.000 0.000
28 84.00 1500.01 230 619 0.740 10000.000 0.000 0.000
29 87.00 1500.01 228 607 0.740 10000.000 0.000 0.000
30 90.00 1500.01 214 639 0.740 10000.000 0.000 0.000
31 93.00 1500.01 230 630 0.740 10000.000 0.000 0.000
32 96.00 1500.01 223 702 0.740 10000.000 0.000 0.000
33 99.00 1500.01 227 706 0.740 10000.000 0.000 0.000
34 102.00 1500.01 250 683 0.740 10000.000 0.000 0.000
35 105.00 1500.01 257 678 0.740 10000.000 0.000 0.000
36 108.00 1500.01 265 702 0.740 10000.000 0.000 0.000
37 111.00 1500.01 295 619 0.740 10000.000 0.000 0.000
38 114.00 1500.01 307 585 0.740 10000.000 0.000 0.000
39 117.00 1500.01 286 543 0.740 10000.000 0.000 0.000
40 120.00 1500.01 290 567 0.740 10000.000 0.000 0.000
41 123.00 1500.01 303 546 0.740 10000.000 0.000 0.000
42 126.00 1500.01 332 461 0.740 10000.000 0.000 0.000
43 129.00 1500.01 306 424 0.740 10000.000 0.000 0.000
44 132.00 1500.01 350 389 0.740 10000.000 0.000 0.000
45 135.00 1500.01 317 371 0.740 10000.000 0.000 0.000
46 138.00 1500.01 320 379 0.740 10000.000 0.000 0.000
47 141.00 1500.01 319 351 0.740 10000.000 0.000 0.000
48 144.00 1500.01 326 324 0.740 10000.000 0.000 0.000
49 147.00 1500.01 325 338 0.740 10000.000 0.000 0.000
50 150.00 1500.01 261 371 0.740 10000.000 0.000 0.000
51 153.00 1500.01 304 352 0.740 10000.000 0.000 0.000
52 156.00 1500.01 301 351 0.740 10000.000 0.000 0.000
53 159.00 1500.01 288 394 0.740 10000.000 0.000 0.000
54 162.00 1500.01 258 403 0.740 10000.000 0.000 0.000
55 165.00 1500.01 244 390 0.740 10000.000 0.000 0.000
56 168.00 1500.01 254 425 0.740 10000.000 0.000 0.000
57 171.00 1500.01 223 418 0.740 10000.000 0.000 0.000
58 174.00 1500.01 250 505 0.740 10000.000 0.000 0.000
59 177.00 1500.01 209 520 0.740 10000.000 0.000 0.000
60 180.00 1500.01 222 598 0.740 10000.000 0.000 0.000
61 183.00 1500.01 213 597 0.740 10000.000 0.000 0.000
62 186.00 1500.01 212 601 0.740 10000.000 0.000 0.000
63 189.00 1500.01 212 609 0.740 10000.000 0.000 0.000
64 192.00 1500.01 232 707 0.740 10000.000 0.000 0.000
65 195.00 1500.01 223 660 0.740 10000.000 0.000 0.000
66 198.00 1500.01 254 692 0.740 10000.000 0.000 0.000
67 201.00 1500.01 241 688 0.740 10000.000 0.000 0.000
68 204.00 1500.01 223 684 0.740 10000.000 0.000 0.000
69 207.00 1500.01 242 610 0.740 10000.000 0.000 0.000
70 210.00 1500.01 260 628 0.740 10000.000 0.000 0.000
71 213.00 1500.01 282 669 0.740 10000.000 0.000 0.000
72 216.00 1500.01 294 595 0.740 10000.000 0.000 0.000
73 219.00 1500.01 327 534 0.740 10000.000 0.000 0.000
74 222.00 1500.01 286 470 0.740 10000.000 0.000 0.000
75 225.00 1500.01 318 468 0.740 10000.000 0.000 0.000
76 228.00 1500.01 299 441 0.740 10000.000 0.000 0.000
77 231.00 1500.01 308 444 0.740 10000.000 0.000 0.000
78 234.00 1500.01 336 416 0.740 10000.000 0.000 0.000
79 237.00 1500.01 305 361 0.740 10000.000 0.000 0.000
80 240.00 1500.01 325 330 0.740 10000.000 0.000 0.000
81 243.00 1500.01 299 365 0.740 10000.000 0.000 0.000
82 246.00 1500.01 303 331 0.740 10000.000 0.000 0.000
83 249.00 1500.01 280 342 0.740 10000.000 0.000 0.000
84 252.00 1500.01 300 311 0.740 10000.000 0.000 0.000
85 255.00 1500.01 296 362 0.740 10000.000 0.000 0.000
86 258.00 1500.01 300 351 0.740 10000.000 0.000 0.000
87 261.00 1500.01 273 377 0.740 10000.000 0.000 0.000
88 264.00 1500.01 236 402 0.740 10000.000 0.000 0.000
89 267.00 1500.01 259 455 0.740 10000.000 0.000 0.000
90 270.00 1500.01 227 459 0.740 10000.000 0.000 0.000
91 273.00 1500.01 239 494 0.740 10000.000 0.000 0.000
92 276.00 1500.01 249 515 0.740 10000.000 0.000 0.000
93 279.00 1500.01 232 557 0.740 10000.000 0.000 0.000
94 282.00 1500.01 248 613 0.740 10000.000 0.000 0.000
95 285.00 1500.01 230 626 0.740 10000.000 0.000 0.000
96 288.00 1500.01 249 636 0.740 10000.000 0.000 0.000
97 291.00 1500.01 246 665 0.740 10000.000 0.000 0.000
98 294.00 1500.01 264 659 0.740 10000.000 0.000 0.000
99 297.00 1500.01 273 677 0.740 10000.000 0.000 0.000
100 300.00 1500.01 267 683 0.740 10000.000 0.000 0.000
101 303.00 1500.01 249 646 0.740 10000.000 0.000 0.000
102 306.00 1500.01 256 696 0.740 10000.000 0.000 0.000
103 309.00 1500.01 242 582 0.740 10000.000 0.000 0.000
104 312.00 1500.01 254 654 0.740 10000.000 0.000 0.000
105 315.00 1500.01 236 601 0.740 10000.000 0.000 0.000
106 318.00 1500.01 244 576 0.740 10000.000 0.000 0.000
107 321.00 1500.01 247 470 0.740 10000.000 0.000 0.000
108 324.00 1500.01 229 501 0.740 10000.000 0.000 0.000
109 327.00 1500.01 204 454 0.740 10000.000 0.000 0.000
110 330.00 1500.01 246 421 0.740 10000.000 0.000 0.000
111 333.00 1500.01 229 415 0.740 10000.000 0.000 0.000
112 336.00 1500.01 244 380 0.740 10000.000 0.000 0.000
113 339.00 1500.01 253 328 0.740 10000.000 0.000 0.000
114 342.00 1500.01 268 320 0.740 10000.000 0.000 0.000
115 345.00 1500.01 256 344 0.740 10000.000 0.000 0.000
116 348.00 1500.01 289 343 0.740 10000.000 0.000 0.000
117 351.00 1500.01 273 337 0.740 10000.000 0.000 0.000
118 354.00 1500.01 313 324 0.740 10000.000 0.000 0.000
119 357.00 1500.01 289 365 0.740 10000.000 0.000 0.000
120 360.00 1500.01 341 356 0.740 10000.000 0.000 0.000
121 363.00 1500.01 317 351 0.740 10000.000 0.000 0.000
122 366.00 1500.01 290 446 0.740 10000.000 0.000 0.000
123 369.00 1500.01 309 471 0.740 10000.000 0.000 0.000
124 372.00 1500.01 321 496 0.740 10000.000 0.000 0.000
125 375.00 1500.01 354 499 0.740 10000.000 0.000 0.000
126 378.00 1500.01 311 571 0.740 10000.000 0.000 0.000
127 381.00 1500.01 355 607 0.740 10000.000 0.000 0.000
128 384.00 1500.01 299 622 0.740 10000.000 0.000 0.000
129 387.00 1500.01 256 633 0.740 10000.000 0.000 0.000
130 390.00 1500.01 269 683 0.740 10000.000 0.000 0.000
131 393.00 1500.01 286 666 0.740 10000.000 0.000 0.000
132 396.00 1500.01 274 685 0.740 10000.000 0.000 0.000
133 399.00 1500.01 232 667 0.740 10000.000 0.000 0.000
134 402.00 1500.01 276 694 0.740 10000.000 0.000 0.000
135 405.00 1500.01 250 660 0.740 10000.000 0.000 0.000
136 408.00 1500.01 225 593 0.740 10000.000 0.000 0.000
137 411.00 1500.01 250 650 0.740 10000.000 0.000 0.000
138 414.00 1500.01 226 605 0.740 10000.000 0.000 0.000
139 417.00 1500.01 210 550 0.740 10000.000 0.000 0.000
140 420.00 1500.01 237 545 0.740 10000.000 0.000 0.000
141 423.00 1500.01 239 505 0.740 10000.000 0.000 0.000
142 426.00 1500.01 206 461 0.740 10000.000 0.000 0.000
143 429.00 1500.01 249 452 0.740 10000.000 0.000 0.000
144 432.00 1500.01 228 431 0.740 10000.000 0.000 0.000
