# BinNR microsec tot-time (s)  O-Beam AUX Ampl(V) f(Hz) phase(deg) chi(pos)
0 0.00 1500.01 50 118 0.740 10000.000 0.000 0.505
1 3.00 1500.01 105 216 0.740 10000.000 0.000 0.505
2 6.00 1500.01 84 199 0.740 10000.000 0.000 0.505
3 9.00 1500.01 86 213 0.740 10000.000 0.000 0.505
4 12.00 1500.01 99 246 0.740 10000.000 0.000 0.505
5 15.00 1500.01 109 187 0.740 10000.000 0.000 0.505
6 18.00 1500.01 116 209 0.740 10000.000 0.000 0.505
7 21.00 1500.01 87 187 0.740 10000.000 0.000 0.505
8 24.00 1500.01 101 167 0.740 10000.000 0.000 0.505
9 27.00 1500.01 90 150 0.740 10000.000 0.000 0.505
10 30.00 1500.01 114 157 0.740 10000.000 0.000 0.505
11 33.00 1500.01 111 148 0.740 10000.000 0.000 0.505
12 36.00 1500.01 99 169 0.740 10000.000 0.000 0.505
13 39.00 1500.01 112 166 0.740 10000.000 0.000 0.505
14 42.00 1500.01 102 178 0.740 10000.000 0.000 0.505
15 45.00 1500.01 112 171 0.740 10000.000 0.000 0.505
16 48.00 1500.01 96 203 0.740 10000.000 0.000 0.505
17 51.00 1500.01 102 186 0.740 10000.000 0.000 0.505
18 54.00 1500.01 95 188 0.740 10000.000 0.000 0.505
19 57.00 1500.01 117 229 0.740 10000.000 0.000 0.505
20 60.00 1500.01 109 210 0.740 10000.000 0.000 0.505
21 63.00 1500.01 84 204 0.740 10000.000 0.000 0.505
22 66.00 1500.01 115 177 0.740 10000.000 0.000 0.505
23 69.00 1500.01 104 176 0.740 10000.000 0.000 0.505
24 72.00 1500.01 101 160 0.740 10000.000 0.000 0.505
25 75.00 1500.01 105 146 0.740 10000.000 0.000 0.505
26 78.00 1500.01 104 133 0.740 10000.000 0.000 0.505
27 81.00 1500.01 105 137 0.740 10000.000 0.000 0.505
28 84.00 1500.01 115 140 0.740 10000.000 0.000 0.505
29 87.00 1500.01 94 133 0.740 10000.000 0.000 0.505
30 90.00 1500.01 94 127 0.740 10000.000 0.000 0.505
31 93.00 1500.01 89 130 0.740 10000.000 0.000 0.505
32 96.00 1500.01 101 145 0.740 10000.000 0.000 0.505
33 99.00 1500.01 101 138 0.740 10000.000 0.000 0.505
34 102.00 1500.01 108 143 0.740 10000.000 0.000 0.505
35 105.00 1500.01 83 110 0.740 10000.000 0.000 0.505
36 108.00 1500.01 100 137 0.740 10000.000 0.000 0.505
37 111.00 1500.01 95 123 0.740 10000.000 0.000 0.505
38 114.00 1500.01 104 165 0.740 10000.000 0.000 0.505
39 117.00 1500.01 119 141 0.740 10000.000 0.000 0.505
40 120.00 1500.01 105 155 0.740 10000.000 0.000 0.505
41 123.00 1500.01 111 159 0.740 10000.000 0.000 0.505
42 126.00 1500.01 101 196 0.740 10000.000 0.000 0.505
43 129.00 1500.01 99 181 0.740 10000.000 0.000 0.505
44 132.00 1500.01 117 223 0.740 10000.000 0.000 0.505
45 135.00 1500.01 117 227 0.740 10000.000 0.000 0.505
46 138.00 1500.01 103 237 0.740 10000.000 0.000 0.505
47 141.00 1500.01 127 226 0.740 10000.000 0.000 0.505
48 144.00 1500.01 107 258 0.740 10000.000 0.000 0.505
49 147.00 1500.01 93 256 0.740 10000.000 0.000 0.505
50 150.00 1500.01 100 224 0.740 10000.000 0.000 0.505
51 153.00 1500.01 103 251 0.740 10000.000 0.000 0.505
52 156.00 1500.01 93 237 0.740 10000.000 0.000 0.505
53 159.00 1500.01 111 222 0.740 10000.000 0.000 0.505
54 162.00 1500.01 78 219 0.740 10000.000 0.000 0.505
55 165.00 1500.01 105 183 0.740 10000.000 0.000 0.505
56 168.00 1500.01 82 168 0.740 10000.000 0.000 0.505
57 171.00 1500.01 105 175 0.740 10000.000 0.000 0.505
58 174.00 1500.01 99 175 0.740 10000.000 0.000 0.505
59 177.00 1500.01 113 133 0.740 10000.000 0.000 0.505
60 180.00 1500.01 93 128 0.740 10000.000 0.000 0.505
61 183.00 1500.01 93 136 0.740 10000.000 0.000 0.505
62 186.00 1500.01 106 120 0.740 10000.000 0.000 0.505
63 189.00 1500.01 87 132 0.740 10000.000 0.000 0.505
64 192.00 1500.01 113 138 0.740 10000.000 0.000 0.505
65 195.00 1500.01 86 140 0.740 10000.000 0.000 0.505
66 198.00 1500.01 83 125 0.740 10000.000 0.000 0.505
67 201.00 1500.01 99 127 0.740 10000.000 0.000 0.505
68 204.00 1500.01 99 157 0.740 10000.000 0.000 0.505
69 207.00 1500.01 90 139 0.740 10000.000 0.000 0.505
70 210.00 1500.01 105 152 0.740 10000.000 0.000 0.505
71 213.00 1500.01 103 146 0.740 10000.000 0.000 0.505
72 216.00 1500.01 101 144 0.740 10000.000 0.000 0.505
73 219.00 1500.01 116 159 0.740 10000.000 0.000 0.505
74 222.00 1500.01 111 168 0.740 10000.000 0.000 0.505
75 225.00 1500.01 105 159 0.740 10000.000 0.000 0.505
76 228.00 1500.01 111 176 0.740 10000.000 0.000 0.505
77 231.00 1500.01 120 170 0.740 10000.000 0.000 0.505
78 234.00 1500.01 102 224 0.740 10000.000 0.000 0.505
79 237.00 1500.01 104 228 0.740 10000.000 0.000 0.505
80 240.00 1500.01 93 204 0.740 10000.000 0.000 0.505
81 243.00 1500.01 107 245 0.740 10000.000 0.000 0.505
82 246.00 1500.01 119 250 0.740 10000.000 0.000 0.505
83 249.00 1500.01 105 241 0.740 10000.000 0.000 0.505
84 252.00 1500.01 94 245 0.740 10000.000 0.000 0.505
85 255.00 1500.01 98 245 0.740 10000.000 0.000 0.505
86 258.00 1500.01 98 208 0.740 10000.000 0.000 0.505
87 261.00 1500.01 85 203 0.740 10000.000 0.000 0.505
88 264.00 1500.01 92 225 0.740 10000.000 0.000 0.505
89 267.00 1500.01 84 189 0.740 10000.000 0.000 0.505
90 270.00 1500.01 81 150 0.740 10000.000 0.000 0.505
91 273.00 1500.01 94 192 0.740 10000.000 0.000 0.505
92 276.00 1500.01 97 171 0.740 10000.000 0.000 0.505
93 279.00 1500.01 99 145 0.740 10000.000 0.000 0.505
94 282.00 1500.01 101 143 0.740 10000.000 0.000 0.505
95 285.00 1500.01 111 151 0.740 10000.000 0.000 0.505
96 288.00 1500.01 127 136 0.740 10000.000 0.000 0.505
97 291.00 1500.01 93 129 0.740 10000.000 0.000 0.505
98 294.00 1500.01 114 124 0.740 10000.000 0.000 0.505
99 297.00 1500.01 101 141 0.740 10000.000 0.000 0.505
100 300.00 1500.01 102 140 0.740 10000.000 0.000 0.505
101 303.00 1500.01 97 131 0.740 10000.000 0.000 0.505
102 306.00 1500.01 102 148 0.740 10000.000 0.000 0.505
103 309.00 1500.01 112 146 0.740 10000.000 0.000 0.505
104 312.00 1500.01 101 144 0.740 10000.000 0.000 0.505
105 315.00 1500.01 89 110 0.740 10000.000 0.000 0.505
106 318.00 1500.01 92 144 0.740 10000.000 0.000 0.505
107 321.00 1500.01 96 161 0.740 10000.000 0.000 0.505
108 324.00 1500.01 90 160 0.740 10000.000 0.000 0.505
109 327.00 1500.01 71 184 0.740 10000.000 0.000 0.505
110 330.00 1500.01 102 178 0.740 10000.000 0.000 0.505
111 333.00 1500.01 106 224 0.740 10000.000 0.000 0.505
112 336.00 1500.01 95 228 0.740 10000.000 0.000 0.505
113 339.00 1500.01 83 224 0.740 10000.000 0.000 0.505
114 342.00 1500.01 95 234 0.740 10000.000 0.000 0.505
115 345.00 1500.01 91 236 0.740 10000.000 0.000 0.505
116 348.00 1500.01 112 269 0.740 10000.000 0.000 0.505
117 351.00 1500.01 103 280 0.740 10000.000 0.000 0.505
118 354.00 1500.01 97 264 0.740 10000.000 0.000 0.505
119 357.00 1500.01 110 205 0.740 10000.000 0.000 0.505
120 360.00 1500.01 98 229 0.740 10000.000 0.000 0.505
121 363.00 1500.01 114 205 0.740 10000.000 0.000 0.505
122 366.00 1500.01 103 199 0.740 10000.000 0.000 0.505
123 369.00 1500.01 112 170 0.740 10000.000 0.000 0.505
124 372.00 1500.01 120 193 0.740 10000.000 0.000 0.505
125 375.00 1500.01 90 149 0.740 10000.000 0.000 0.505
126 378.00 1500.01 88 163 0.740 10000.000 0.000 0.505
127 381.00 1500.01 102 159 0.740 10000.000 0.000 0.505
128 384.00 1500.01 115 140 0.740 10000.000 0.000 0.505
129 387.00 1500.01 105 129 0.740 10000.000 0.000 0.505
130 390.00 1500.01 94 143 0.740 10000.000 0.000 0.505
131 393.00 1500.01 101 136 0.740 10000.000 0.000 0.505
132 396.00 1500.01 96 125 0.740 10000.000 0.000 0.505
133 399.00 1500.01 103 150 0.740 10000.000 0.000 0.505
134 402.00 1500.01 118 135 0.740 10000.000 0.000 0.505
135 405.00 1500.01 90 125 0.740 10000.000 0.000 0.505
136 408.00 1500.01 110 136 0.740 10000.000 0.000 0.505
137 411.00 1500.01 109 155 0.740 10000.000 0.000 0.505
138 414.00 1500.01 98 142 0.740 10000.000 0.000 0.505
139 417.00 1500.01 125 139 0.740 10000.000 0.000 0.505
140 420.00 1500.01 107 149 0.740 10000.000 0.000 0.505
141 423.00 1500.01 96 178 0.740 10000.000 0.000 0.505
142 426.00 1500.01 130 190 0.740 10000.000 0.000 0.505
143 429.00 1500.01 100 184 0.740 10000.000 0.000 0.505
144 432.00 1500.01 105 207 0.740 10000.000 0.000 0.505
