# BinNR microsec tot-time (s)  O-Beam AUX Ampl(V) f(Hz) phase(deg) chi(pos)
0 0.00 1500.00 55 141 0.740 10000.000 0.000 -1.505
1 3.00 1500.00 100 246 0.740 10000.000 0.000 -1.505
2 6.00 1500.00 96 273 0.740 10000.000 0.000 -1.505
3 9.00 1500.00 96 246 0.740 10000.000 0.000 -1.505
4 12.00 1500.00 89 227 0.740 10000.000 0.000 -1.505
5 15.00 1500.00 99 244 0.740 10000.000 0.000 -1.505
6 18.00 1500.00 104 272 0.740 10000.000 0.000 -1.505
7 21.00 1500.00 91 210 0.740 10000.000 0.000 -1.505
8 24.00 1500.00 108 210 0.740 10000.000 0.000 -1.505
9 27.00 1500.00 117 198 0.740 10000.000 0.000 -1.505
10 30.00 1500.00 84 173 0.740 10000.000 0.000 -1.505
11 33.00 1500.00 110 189 0.740 10000.000 0.000 -1.505
12 36.00 1500.00 96 181 0.740 10000.000 0.000 -1.505
13 39.00 1500.00 92 171 0.740 10000.000 0.000 -1.505
14 42.00 1500.00 96 177 0.740 10000.000 0.000 -1.505
15 45.00 1500.00 110 200 0.740 10000.000 0.000 -1.505
16 48.00 1500.00 113 220 0.740 10000.000 0.000 -1.505
17 51.00 1500.00 108 226 0.740 10000.000 0.000 -1.505
18 54.00 1500.00 99 249 0.740 10000.000 0.000 -1.505
19 57.00 1500.00 120 239 0.740 10000.000 0.000 -1.505
20 60.00 1500.00 99 275 0.740 10000.000 0.000 -1.505
21 63.00 1500.00 91 253 0.740 10000.000 0.000 -1.505
22 66.00 1500.00 122 253 0.740 10000.000 0.000 -1.505
23 69.00 1500.00 107 219 0.740 10000.000 0.000 -1.505
24 72.00 1500.00 114 182 0.740 10000.000 0.000 -1.505
25 75.00 1500.00 106 180 0.740 10000.000 0.000 -1.505
26 78.00 1500.00 98 185 0.740 10000.000 0.000 -1.505
27 81.00 1500.00 105 170 0.740 10000.000 0.000 -1.505
28 84.00 1500.00 108 145 0.740 10000.000 0.000 -1.505
29 87.00 1500.00 89 144 0.740 10000.000 0.000 -1.505
30 90.00 1500.00 115 149 0.740 10000.000 0.000 -1.505
31 93.00 1500.00 104 104 0.740 10000.000 0.000 -1.505
32 96.00 1500.00 110 125 0.740 10000.000 0.000 -1.505
33 99.00 1500.00 105 136 0.740 10000.000 0.000 -1.505
34 102.00 1500.00 101 122 0.740 10000.000 0.000 -1.505
35 105.00 1500.00 90 112 0.740 10000.000 0.000 -1.505
36 108.00 1500.00 82 142 0.740 10000.000 0.000 -1.505
37 111.00 1500.00 100 127 0.740 10000.000 0.000 -1.505
38 114.00 1500.00 96 148 0.740 10000.000 0.000 -1.505
39 117.00 1500.00 115 151 0.740 10000.000 0.000 -1.505
40 120.00 1500.00 105 162 0.740 10000.000 0.000 -1.505
41 123.00 1500.00 116 182 0.740 10000.000 0.000 -1.505
42 126.00 1500.00 107 205 0.740 10000.000 0.000 -1.505
43 129.00 1500.00 93 216 0.740 10000.000 0.000 -1.505
44 132.00 1500.00 105 226 0.740 10000.000 0.000 -1.505
45 135.00 1500.00 102 257 0.740 10000.000 0.000 -1.505
46 138.00 1500.00 115 283 0.740 10000.000 0.000 -1.505
47 141.00 1500.00 105 266 0.740 10000.000 0.000 -1.505
48 144.00 1500.00 116 295 0.740 10000.000 0.000 -1.505
49 147.00 1500.00 98 329 0.740 10000.000 0.000 -1.505
50 150.00 1500.00 89 292 0.740 10000.000 0.000 -1.505
51 153.00 1500.00 110 279 0.740 10000.000 0.000 -1.505
52 156.00 1500.00 114 310 0.740 10000.000 0.000 -1.505
53 159.00 1500.00 96 261 0.740 10000.000 0.000 -1.505
54 162.00 1500.00 109 249 0.740 10000.000 0.000 -1.505
55 165.00 1500.00 92 260 0.740 10000.000 0.000 -1.505
56 168.00 1500.00 89 234 0.740 10000.000 0.000 -1.505
57 171.00 1500.00 107 161 0.740 10000.000 0.000 -1.505
58 174.00 1500.00 116 174 0.740 10000.000 0.000 -1.505
59 177.00 1500.00 116 153 0.740 10000.000 0.000 -1.505
60 180.00 1500.00 117 161 0.740 10000.000 0.000 -1.505
61 183.00 1500.00 114 132 0.740 10000.000 0.000 -1.505
62 186.00 1500.00 104 154 0.740 10000.000 0.000 -1.505
63 189.00 1500.00 120 123 0.740 10000.000 0.000 -1.505
64 192.00 1500.00 94 150 0.740 10000.000 0.000 -1.505
65 195.00 1500.00 109 148 0.740 10000.000 0.000 -1.505
66 198.00 1500.00 104 119 0.740 10000.000 0.000 -1.505
67 201.00 1500.00 117 122 0.740 10000.000 0.000 -1.505
68 204.00 1500.00 103 149 0.740 10000.000 0.000 -1.505
69 207.00 1500.00 88 144 0.740 10000.000 0.000 -1.505
70 210.00 1500.00 117 143 0.740 10000.000 0.000 -1.505
71 213.00 1500.00 97 143 0.740 10000.000 0.000 -1.505
72 216.00 1500.00 76 172 0.740 10000.000 0.000 -1.505
73 219.00 1500.00 101 155 0.740 10000.000 0.000 -1.505
74 222.00 1500.00 100 202 0.740 10000.000 0.000 -1.505
75 225.00 1500.00 93 204 0.740 10000.000 0.000 -1.505
76 228.00 1500.00 103 204 0.740 10000.000 0.000 -1.505
77 231.00 1500.00 95 233 0.740 10000.000 0.000 -1.505
78 234.00 1500.00 92 275 0.740 10000.000 0.000 -1.505
79 237.00 1500.00 106 288 0.740 10000.000 0.000 -1.505
80 240.00 1500.00 96 295 0.740 10000.000 0.000 -1.505
81 243.00 1500.00 105 295 0.740 10000.000 0.000 -1.505
82 246.00 1500.00 118 306 0.740 10000.000 0.000 -1.505
83 249.00 1500.00 98 320 0.740 10000.000 0.000 -1.505
84 252.00 1500.00 93 313 0.740 10000.000 0.000 -1.505
85 255.00 1500.00 82 295 0.740 10000.000 0.000 -1.505
86 258.00 1500.00 85 276 0.740 10000.000 0.000 -1.505
87 261.00 1500.00 111 248 0.740 10000.000 0.000 -1.505
88 264.00 1500.00 113 235 0.740 10000.000 0.000 -1.505
89 267.00 1500.00 108 257 0.740 10000.000 0.000 -1.505
90 270.00 1500.00 103 202 0.740 10000.000 0.000 -1.505
91 273.00 1500.00 115 199 0.740 10000.000 0.000 -1.505
92 276.00 1500.00 106 181 0.740 10000.000 0.000 -1.505
93 279.00 1500.00 102 144 0.740 10000.000 0.000 -1.505
94 282.00 1500.00 105 127 0.740 10000.000 0.000 -1.505
95 285.00 1500.00 97 130 0.740 10000.000 0.000 -1.505
96 288.00 1500.00 101 131 0.740 10000.000 0.000 -1.505
97 291.00 1500.00 98 146 0.740 10000.000 0.000 -1.505
98 294.00 1500.00 117 154 0.740 10000.000 0.000 -1.505
99 297.00 1500.00 85 117 0.740 10000.000 0.000 -1.505
100 300.00 1500.00 98 148 0.740 10000.000 0.000 -1.505
101 303.00 1500.00 115 117 0.740 10000.000 0.000 -1.505
102 306.00 1500.00 103 131 0.740 10000.000 0.000 -1.505
103 309.00 1500.00 91 142 0.740 10000.000 0.000 -1.505
104 312.00 1500.00 109 169 0.740 10000.000 0.000 -1.505
105 315.00 1500.00 103 171 0.740 10000.000 0.000 -1.505
106 318.00 1500.00 107 147 0.740 10000.000 0.000 -1.505
107 321.00 1500.00 99 176 0.740 10000.000 0.000 -1.505
108 324.00 1500.00 101 215 0.740 10000.000 0.000 -1.505
109 327.00 1500.00 94 187 0.740 10000.000 0.000 -1.505
110 330.00 1500.00 107 239 0.740 10000.000 0.000 -1.505
111 333.00 1500.00 100 272 0.740 10000.000 0.000 -1.505
112 336.00 1500.00 112 303 0.740 10000.000 0.000 -1.505
113 339.00 1500.00 104 267 0.740 10000.000 0.000 -1.505
114 342.00 1500.00 99 305 0.740 10000.000 0.000 -1.505
115 345.00 1500.00 104 288 0.740 10000.000 0.000 -1.505
116 348.00 1500.00 103 301 0.740 10000.000 0.000 -1.505
117 351.00 1500.00 91 281 0.740 10000.000 0.000 -1.505
118 354.00 1500.00 89 276 0.740 10000.000 0.000 -1.505
119 357.00 1500.00 105 279 0.740 10000.000 0.000 -1.505
120 360.00 1500.00 104 283 0.740 10000.000 0.000 -1.505
121 363.00 1500.00 90 247 0.740 10000.000 0.000 -1.505
122 366.00 1500.00 98 222 0.740 10000.000 0.000 -1.505
123 369.00 1500.00 112 196 0.740 10000.000 0.000 -1.505
124 372.00 1500.00 108 192 0.740 10000.000 0.000 -1.505
125 375.00 1500.00 105 147 0.740 10000.000 0.000 -1.505
126 378.00 1500.00 111 163 0.740 10000.000 0.000 -1.505
127 381.00 1500.00 105 155 0.740 10000.000 0.000 -1.505
128 384.00 1500.00 104 153 0.740 10000.000 0.000 -1.505
129 387.00 1500.00 113 140 0.740 10000.000 0.000 -1.505
130 390.00 1500.00 109 140 0.740 10000.000 0.000 -1.505
131 393.00 1500.00 118 140 0.740 10000.000 0.000 -1.505
132 396.00 1500.00 104 146 0.740 10000.000 0.000 -1.505
133 399.00 1500.00 92 123 0.740 10000.000 0.000 -1.505
134 402.00 1500.00 116 129 0.740 10000.000 0.000 -1.505
135 405.00 1500.00 113 135 0.740 10000.000 0.000 -1.505
136 408.00 1500.00 104 138 0.740 10000.000 0.000 -1.505
137 411.00 1500.00 102 137 0.740 10000.000 0.000 -1.505
138 414.00 1500.00 102 150 0.740 10000.000 0.000 -1.505
139 417.00 1500.00 104 166 0.740 10000.000 0.000 -1.505
140 420.00 1500.00 99 147 0.740 10000.000 0.000 -1.505
141 423.00 1500.00 112 199 0.740 10000.000 0.000 -1.505
142 426.00 1500.00 100 224 0.740 10000.000 0.000 -1.505
143 429.00 1500.00 96 227 0.740 10000.000 0.000 -1.505
144 432.00 1500.00 117 237 0.740 10000.000 0.000 -1.505
