# BinNR microsec tot-time (s)  O-Beam AUX Ampl(V) f(Hz) phase(deg) chi(pos)
0 0.00 1500.01 69 269 0.740 10000.000 0.000 -1.329
1 3.00 1500.01 136 558 0.740 10000.000 0.000 -1.329
2 6.00 1500.01 130 524 0.740 10000.000 0.000 -1.329
3 9.00 1500.01 155 556 0.740 10000.000 0.000 -1.329
4 12.00 1500.01 151 534 0.740 10000.000 0.000 -1.329
5 15.00 1500.01 117 566 0.740 10000.000 0.000 -1.329
6 18.00 1500.01 119 469 0.740 10000.000 0.000 -1.329
7 21.00 1500.01 120 454 0.740 10000.000 0.000 -1.329
8 24.00 1500.01 115 453 0.740 10000.000 0.000 -1.329
9 27.00 1500.01 117 442 0.740 10000.000 0.000 -1.329
10 30.00 1500.01 95 423 0.740 10000.000 0.000 -1.329
11 33.00 1500.01 107 422 0.740 10000.000 0.000 -1.329
12 36.00 1500.01 117 427 0.740 10000.000 0.000 -1.329
13 39.00 1500.01 103 438 0.740 10000.000 0.000 -1.329
14 42.00 1500.01 120 422 0.740 10000.000 0.000 -1.329
15 45.00 1500.01 107 477 0.740 10000.000 0.000 -1.329
16 48.00 1500.01 112 483 0.740 10000.000 0.000 -1.329
17 51.00 1500.01 127 529 0.740 10000.000 0.000 -1.329
18 54.00 1500.01 123 506 0.740 10000.000 0.000 -1.329
19 57.00 1500.01 122 519 0.740 10000.000 0.000 -1.329
20 60.00 1500.01 110 550 0.740 10000.000 0.000 -1.329
21 63.00 1500.01 157 538 0.740 10000.000 0.000 -1.329
22 66.00 1500.01 144 504 0.740 10000.000 0.000 -1.329
23 69.00 1500.01 142 465 0.740 10000.000 0.000 -1.329
24 72.00 1500.01 169 423 0.740 10000.000 0.000 -1.329
25 75.00 1500.01 183 433 0.740 10000.000 0.000 -1.329
26 78.00 1500.01 163 374 0.740 10000.000 0.000 -1.329
27 81.00 1500.01 167 401 0.740 10000.000 0.000 -1.329
28 84.00 1500.01 145 345 0.740 10000.000 0.000 -1.329
29 87.00 1500.01 163 292 0.740 10000.000 0.000 -1.329
30 90.00 1500.01 177 299 0.740 10000.000 0.000 -1.329
31 93.00 1500.01 186 274 0.740 10000.000 0.000 -1.329
32 96.00 1500.01 168 263 0.740 10000.000 0.000 -1.329
33 99.00 1500.01 173 282 0.740 10000.000 0.000 -1.329
34 102.00 1500.01 173 292 0.740 10000.000 0.000 -1.329
35 105.00 1500.01 141 245 0.740 10000.000 0.000 -1.329
36 108.00 1500.01 147 312 0.740 10000.000 0.000 -1.329
37 111.00 1500.01 145 332 0.740 10000.000 0.000 -1.329
38 114.00 1500.01 123 369 0.740 10000.000 0.000 -1.329
39 117.00 1500.01 131 319 0.740 10000.000 0.000 -1.329
40 120.00 1500.01 115 339 0.740 10000.000 0.000 -1.329
41 123.00 1500.01 112 406 0.740 10000.000 0.000 -1.329
42 126.00 1500.01 117 403 0.740 10000.000 0.000 -1.329
43 129.00 1500.01 109 455 0.740 10000.000 0.000 -1.329
44 132.00 1500.01 116 503 0.740 10000.000 0.000 -1.329
45 135.00 1500.01 110 529 0.740 10000.000 0.000 -1.329
46 138.00 1500.01 120 584 0.740 10000.000 0.000 -1.329
47 141.00 1500.01 128 534 0.740 10000.000 0.000 -1.329
48 144.00 1500.01 135 592 0.740 10000.000 0.000 -1.329
49 147.00 1500.01 108 586 0.740 10000.000 0.000 -1.329
50 150.00 1500.01 124 618 0.740 10000.000 0.000 -1.329
51 153.00 1500.01 130 548 0.740 10000.000 0.000 -1.329
52 156.00 1500.01 163 583 0.740 10000.000 0.000 -1.329
53 159.00 1500.01 139 560 0.740 10000.000 0.000 -1.329
54 162.00 1500.01 147 572 0.740 10000.000 0.000 -1.329
55 165.00 1500.01 137 472 0.740 10000.000 0.000 -1.329
56 168.00 1500.01 153 504 0.740 10000.000 0.000 -1.329
57 171.00 1500.01 165 437 0.740 10000.000 0.000 -1.329
58 174.00 1500.01 167 392 0.740 10000.000 0.000 -1.329
59 177.00 1500.01 194 368 0.740 10000.000 0.000 -1.329
60 180.00 1500.01 172 368 0.740 10000.000 0.000 -1.329
61 183.00 1500.01 148 335 0.740 10000.000 0.000 -1.329
62 186.00 1500.01 200 309 0.740 10000.000 0.000 -1.329
63 189.00 1500.01 176 268 0.740 10000.000 0.000 -1.329
64 192.00 1500.01 172 325 0.740 10000.000 0.000 -1.329
65 195.00 1500.01 164 259 0.740 10000.000 0.000 -1.329
66 198.00 1500.01 183 279 0.740 10000.000 0.000 -1.329
67 201.00 1500.01 161 301 0.740 10000.000 0.000 -1.329
68 204.00 1500.01 166 315 0.740 10000.000 0.000 -1.329
69 207.00 1500.01 136 291 0.740 10000.000 0.000 -1.329
70 210.00 1500.01 155 318 0.740 10000.000 0.000 -1.329
71 213.00 1500.01 125 297 0.740 10000.000 0.000 -1.329
72 216.00 1500.01 142 359 0.740 10000.000 0.000 -1.329
73 219.00 1500.01 95 359 0.740 10000.000 0.000 -1.329
74 222.00 1500.01 126 407 0.740 10000.000 0.000 -1.329
75 225.00 1500.01 111 424 0.740 10000.000 0.000 -1.329
76 228.00 1500.01 116 476 0.740 10000.000 0.000 -1.329
77 231.00 1500.01 133 500 0.740 10000.000 0.000 -1.329
78 234.00 1500.01 105 545 0.740 10000.000 0.000 -1.329
79 237.00 1500.01 101 540 0.740 10000.000 0.000 -1.329
80 240.00 1500.01 111 605 0.740 10000.000 0.000 -1.329
81 243.00 1500.01 124 564 0.740 10000.000 0.000 -1.329
82 246.00 1500.01 129 626 0.740 10000.000 0.000 -1.329
83 249.00 1500.01 139 605 0.740 10000.000 0.000 -1.329
84 252.00 1500.01 115 604 0.740 10000.000 0.000 -1.329
85 255.00 1500.01 121 597 0.740 10000.000 0.000 -1.329
86 258.00 1500.01 129 527 0.740 10000.000 0.000 -1.329
87 261.00 1500.01 139 544 0.740 10000.000 0.000 -1.329
88 264.00 1500.01 164 497 0.740 10000.000 0.000 -1.329
89 267.00 1500.01 157 473 0.740 10000.000 0.000 -1.329
90 270.00 1500.01 167 458 0.740 10000.000 0.000 -1.329
91 273.00 1500.01 194 439 0.740 10000.000 0.000 -1.329
92 276.00 1500.01 162 433 0.740 10000.000 0.000 -1.329
93 279.00 1500.01 155 386 0.740 10000.000 0.000 -1.329
94 282.00 1500.01 168 360 0.740 10000.000 0.000 -1.329
95 285.00 1500.01 159 321 0.740 10000.000 0.000 -1.329
96 288.00 1500.01 183 292 0.740 10000.000 0.000 -1.329
97 291.00 1500.01 140 296 0.740 10000.000 0.000 -1.329
98 294.00 1500.01 157 295 0.740 10000.000 0.000 -1.329
99 297.00 1500.01 149 292 0.740 10000.000 0.000 -1.329
100 300.00 1500.01 135 264 0.740 10000.000 0.000 -1.329
101 303.00 1500.01 129 279 0.740 10000.000 0.000 -1.329
102 306.00 1500.01 151 294 0.740 10000.000 0.000 -1.329
103 309.00 1500.01 138 295 0.740 10000.000 0.000 -1.329
104 312.00 1500.01 140 370 0.740 10000.000 0.000 -1.329
105 315.00 1500.01 143 304 0.740 10000.000 0.000 -1.329
106 318.00 1500.01 148 347 0.740 10000.000 0.000 -1.329
107 321.00 1500.01 170 401 0.740 10000.000 0.000 -1.329
108 324.00 1500.01 157 459 0.740 10000.000 0.000 -1.329
109 327.00 1500.01 137 488 0.740 10000.000 0.000 -1.329
110 330.00 1500.01 150 484 0.740 10000.000 0.000 -1.329
111 333.00 1500.01 137 534 0.740 10000.000 0.000 -1.329
112 336.00 1500.01 144 533 0.740 10000.000 0.000 -1.329
113 339.00 1500.01 127 538 0.740 10000.000 0.000 -1.329
114 342.00 1500.01 162 577 0.740 10000.000 0.000 -1.329
115 345.00 1500.01 143 569 0.740 10000.000 0.000 -1.329
116 348.00 1500.01 129 568 0.740 10000.000 0.000 -1.329
117 351.00 1500.01 124 619 0.740 10000.000 0.000 -1.329
118 354.00 1500.01 137 596 0.740 10000.000 0.000 -1.329
119 357.00 1500.01 134 552 0.740 10000.000 0.000 -1.329
120 360.00 1500.01 118 547 0.740 10000.000 0.000 -1.329
121 363.00 1500.01 116 515 0.740 10000.000 0.000 -1.329
122 366.00 1500.01 98 511 0.740 10000.000 0.000 -1.329
123 369.00 1500.01 103 469 0.740 10000.000 0.000 -1.329
124 372.00 1500.01 113 449 0.740 10000.000 0.000 -1.329
125 375.00 1500.01 111 391 0.740 10000.000 0.000 -1.329
126 378.00 1500.01 119 365 0.740 10000.000 0.000 -1.329
127 381.00 1500.01 135 343 0.740 10000.000 0.000 -1.329
128 384.00 1500.01 134 340 0.740 10000.000 0.000 -1.329
129 387.00 1500.01 145 259 0.740 10000.000 0.000 -1.329
130 390.00 1500.01 126 271 0.740 10000.000 0.000 -1.329
131 393.00 1500.01 126 283 0.740 10000.000 0.000 -1.329
132 396.00 1500.01 151 269 0.740 10000.000 0.000 -1.329
133 399.00 1500.01 143 261 0.740 10000.000 0.000 -1.329
134 402.00 1500.01 155 312 0.740 10000.000 0.000 -1.329
135 405.00 1500.01 155 273 0.740 10000.000 0.000 -1.329
136 408.00 1500.01 180 306 0.740 10000.000 0.000 -1.329
137 411.00 1500.01 169 330 0.740 10000.000 0.000 -1.329
138 414.00 1500.01 164 315 0.740 10000.000 0.000 -1.329
139 417.00 1500.01 181 365 0.740 10000.000 0.000 -1.329
140 420.00 1500.01 163 410 0.740 10000.000 0.000 -1.329
141 423.00 1500.01 185 400 0.740 10000.000 0.000 -1.329
142 426.00 1500.01 183 460 0.740 10000.000 0.000 -1.329
143 429.00 1500.01 163 474 0.740 10000.000 0.000 -1.329
144 432.00 1500.01 168 533 0.740 10000.000 0.000 -1.329
