# BinNR microsec tot-time (s)  O-Beam AUX Ampl(V) f(Hz) phase(deg) chi(pos)
0 0.00 1500.00 72 210 0.740 10000.000 0.000 0.659
1 3.00 1500.00 121 431 0.740 10000.000 0.000 0.659
2 6.00 1500.00 118 434 0.740 10000.000 0.000 0.659
3 9.00 1500.00 123 396 0.740 10000.000 0.000 0.659
4 12.00 1500.00 99 402 0.740 10000.000 0.000 0.659
5 15.00 1500.00 106 411 0.740 10000.000 0.000 0.659
6 18.00 1500.00 100 352 0.740 10000.000 0.000 0.659
7 21.00 1500.00 103 355 0.740 10000.000 0.000 0.659
8 24.00 1500.00 95 316 0.740 10000.000 0.000 0.659
9 27.00 1500.00 103 313 0.740 10000.000 0.000 0.659
10 30.00 1500.00 101 300 0.740 10000.000 0.000 0.659
11 33.00 1500.00 82 312 0.740 10000.000 0.000 0.659
12 36.00 1500.00 102 317 0.740 10000.000 0.000 0.659
13 39.00 1500.00 92 271 0.740 10000.000 0.000 0.659
14 42.00 1500.00 126 327 0.740 10000.000 0.000 0.659
15 45.00 1500.00 103 323 0.740 10000.000 0.000 0.659
16 48.00 1500.00 99 401 0.740 10000.000 0.000 0.659
17 51.00 1500.00 91 406 0.740 10000.000 0.000 0.659
18 54.00 1500.00 121 404 0.740 10000.000 0.000 0.659
19 57.00 1500.00 112 406 0.740 10000.000 0.000 0.659
20 60.00 1500.00 117 394 0.740 10000.000 0.000 0.659
21 63.00 1500.00 111 376 0.740 10000.000 0.000 0.659
22 66.00 1500.00 136 422 0.740 10000.000 0.000 0.659
23 69.00 1500.00 109 355 0.740 10000.000 0.000 0.659
24 72.00 1500.00 137 333 0.740 10000.000 0.000 0.659
25 75.00 1500.00 141 294 0.740 10000.000 0.000 0.659
26 78.00 1500.00 173 294 0.740 10000.000 0.000 0.659
27 81.00 1500.00 143 243 0.740 10000.000 0.000 0.659
28 84.00 1500.00 139 248 0.740 10000.000 0.000 0.659
29 87.00 1500.00 137 217 0.740 10000.000 0.000 0.659
30 90.00 1500.00 145 206 0.740 10000.000 0.000 0.659
31 93.00 1500.00 132 209 0.740 10000.000 0.000 0.659
32 96.00 1500.00 143 211 0.740 10000.000 0.000 0.659
33 99.00 1500.00 135 202 0.740 10000.000 0.000 0.659
34 102.00 1500.00 141 178 0.740 10000.000 0.000 0.659
35 105.00 1500.00 137 204 0.740 10000.000 0.000 0.659
36 108.00 1500.00 118 188 0.740 10000.000 0.000 0.659
37 111.00 1500.00 111 226 0.740 10000.000 0.000 0.659
38 114.00 1500.00 112 223 0.740 10000.000 0.000 0.659
39 117.00 1500.00 122 263 0.740 10000.000 0.000 0.659
40 120.00 1500.00 93 277 0.740 10000.000 0.000 0.659
41 123.00 1500.00 122 302 0.740 10000.000 0.000 0.659
42 126.00 1500.00 102 318 0.740 10000.000 0.000 0.659
43 129.00 1500.00 113 375 0.740 10000.000 0.000 0.659
44 132.00 1500.00 91 379 0.740 10000.000 0.000 0.659
45 135.00 1500.00 111 381 0.740 10000.000 0.000 0.659
46 138.00 1500.00 112 422 0.740 10000.000 0.000 0.659
47 141.00 1500.00 106 427 0.740 10000.000 0.000 0.659
48 144.00 1500.00 111 499 0.740 10000.000 0.000 0.659
49 147.00 1500.00 108 480 0.740 10000.000 0.000 0.659
50 150.00 1500.00 106 472 0.740 10000.000 0.000 0.659
51 153.00 1500.00 102 434 0.740 10000.000 0.000 0.659
52 156.00 1500.00 120 418 0.740 10000.000 0.000 0.659
53 159.00 1500.00 100 423 0.740 10000.000 0.000 0.659
54 162.00 1500.00 109 373 0.740 10000.000 0.000 0.659
55 165.00 1500.00 130 351 0.740 10000.000 0.000 0.659
56 168.00 1500.00 129 339 0.740 10000.000 0.000 0.659
57 171.00 1500.00 128 325 0.740 10000.000 0.000 0.659
58 174.00 1500.00 141 303 0.740 10000.000 0.000 0.659
59 177.00 1500.00 146 281 0.740 10000.000 0.000 0.659
60 180.00 1500.00 137 278 0.740 10000.000 0.000 0.659
61 183.00 1500.00 147 230 0.740 10000.000 0.000 0.659
62 186.00 1500.00 160 200 0.740 10000.000 0.000 0.659
63 189.00 1500.00 147 216 0.740 10000.000 0.000 0.659
64 192.00 1500.00 151 206 0.740 10000.000 0.000 0.659
65 195.00 1500.00 138 191 0.740 10000.000 0.000 0.659
66 198.00 1500.00 124 202 0.740 10000.000 0.000 0.659
67 201.00 1500.00 109 206 0.740 10000.000 0.000 0.659
68 204.00 1500.00 130 202 0.740 10000.000 0.000 0.659
69 207.00 1500.00 138 212 0.740 10000.000 0.000 0.659
70 210.00 1500.00 125 206 0.740 10000.000 0.000 0.659
71 213.00 1500.00 114 243 0.740 10000.000 0.000 0.659
72 216.00 1500.00 106 266 0.740 10000.000 0.000 0.659
73 219.00 1500.00 100 295 0.740 10000.000 0.000 0.659
74 222.00 1500.00 108 300 0.740 10000.000 0.000 0.659
75 225.00 1500.00 98 332 0.740 10000.000 0.000 0.659
76 228.00 1500.00 115 374 0.740 10000.000 0.000 0.659
77 231.00 1500.00 112 371 0.740 10000.000 0.000 0.659
78 234.00 1500.00 103 393 0.740 10000.000 0.000 0.659
79 237.00 1500.00 89 402 0.740 10000.000 0.000 0.659
80 240.00 1500.00 104 465 0.740 10000.000 0.000 0.659
81 243.00 1500.00 99 478 0.740 10000.000 0.000 0.659
82 246.00 1500.00 91 472 0.740 10000.000 0.000 0.659
83 249.00 1500.00 114 433 0.740 10000.000 0.000 0.659
84 252.00 1500.00 104 454 0.740 10000.000 0.000 0.659
85 255.00 1500.00 114 461 0.740 10000.000 0.000 0.659
86 258.00 1500.00 115 410 0.740 10000.000 0.000 0.659
87 261.00 1500.00 115 390 0.740 10000.000 0.000 0.659
88 264.00 1500.00 125 413 0.740 10000.000 0.000 0.659
89 267.00 1500.00 128 386 0.740 10000.000 0.000 0.659
90 270.00 1500.00 144 327 0.740 10000.000 0.000 0.659
91 273.00 1500.00 126 301 0.740 10000.000 0.000 0.659
92 276.00 1500.00 136 291 0.740 10000.000 0.000 0.659
93 279.00 1500.00 155 255 0.740 10000.000 0.000 0.659
94 282.00 1500.00 118 266 0.740 10000.000 0.000 0.659
95 285.00 1500.00 132 229 0.740 10000.000 0.000 0.659
96 288.00 1500.00 138 205 0.740 10000.000 0.000 0.659
97 291.00 1500.00 120 187 0.740 10000.000 0.000 0.659
98 294.00 1500.00 119 202 0.740 10000.000 0.000 0.659
99 297.00 1500.00 127 199 0.740 10000.000 0.000 0.659
100 300.00 1500.00 128 188 0.740 10000.000 0.000 0.659
101 303.00 1500.00 107 178 0.740 10000.000 0.000 0.659
102 306.00 1500.00 124 217 0.740 10000.000 0.000 0.659
103 309.00 1500.00 131 208 0.740 10000.000 0.000 0.659
104 312.00 1500.00 127 224 0.740 10000.000 0.000 0.659
105 315.00 1500.00 114 261 0.740 10000.000 0.000 0.659
106 318.00 1500.00 140 263 0.740 10000.000 0.000 0.659
107 321.00 1500.00 122 319 0.740 10000.000 0.000 0.659
108 324.00 1500.00 127 317 0.740 10000.000 0.000 0.659
109 327.00 1500.00 143 333 0.740 10000.000 0.000 0.659
110 330.00 1500.00 112 377 0.740 10000.000 0.000 0.659
111 333.00 1500.00 138 405 0.740 10000.000 0.000 0.659
112 336.00 1500.00 136 381 0.740 10000.000 0.000 0.659
113 339.00 1500.00 118 427 0.740 10000.000 0.000 0.659
114 342.00 1500.00 106 474 0.740 10000.000 0.000 0.659
115 345.00 1500.00 143 495 0.740 10000.000 0.000 0.659
116 348.00 1500.00 108 466 0.740 10000.000 0.000 0.659
117 351.00 1500.00 105 438 0.740 10000.000 0.000 0.659
118 354.00 1500.00 104 481 0.740 10000.000 0.000 0.659
119 357.00 1500.00 94 415 0.740 10000.000 0.000 0.659
120 360.00 1500.00 99 425 0.740 10000.000 0.000 0.659
121 363.00 1500.00 101 370 0.740 10000.000 0.000 0.659
122 366.00 1500.00 98 396 0.740 10000.000 0.000 0.659
123 369.00 1500.00 101 367 0.740 10000.000 0.000 0.659
124 372.00 1500.00 107 335 0.740 10000.000 0.000 0.659
125 375.00 1500.00 115 291 0.740 10000.000 0.000 0.659
126 378.00 1500.00 110 266 0.740 10000.000 0.000 0.659
127 381.00 1500.00 104 261 0.740 10000.000 0.000 0.659
128 384.00 1500.00 89 249 0.740 10000.000 0.000 0.659
129 387.00 1500.00 125 200 0.740 10000.000 0.000 0.659
130 390.00 1500.00 125 223 0.740 10000.000 0.000 0.659
131 393.00 1500.00 116 212 0.740 10000.000 0.000 0.659
132 396.00 1500.00 124 189 0.740 10000.000 0.000 0.659
133 399.00 1500.00 112 190 0.740 10000.000 0.000 0.659
134 402.00 1500.00 138 201 0.740 10000.000 0.000 0.659
135 405.00 1500.00 117 235 0.740 10000.000 0.000 0.659
136 408.00 1500.00 151 205 0.740 10000.000 0.000 0.659
137 411.00 1500.00 161 239 0.740 10000.000 0.000 0.659
138 414.00 1500.00 151 230 0.740 10000.000 0.000 0.659
139 417.00 1500.00 136 269 0.740 10000.000 0.000 0.659
140 420.00 1500.00 139 299 0.740 10000.000 0.000 0.659
141 423.00 1500.00 128 320 0.740 10000.000 0.000 0.659
142 426.00 1500.00 141 345 0.740 10000.000 0.000 0.659
143 429.00 1500.00 133 363 0.740 10000.000 0.000 0.659
144 432.00 1500.00 135 389 0.740 10000.000 0.000 0.659
