# BinNR microsec tot-time (s)  O-Beam AUX Ampl(V) f(Hz) phase(deg) chi(pos)
0 0.00 1500.01 150 318 0.740 10000.000 0.000 -0.176
1 3.00 1500.01 308 658 0.740 10000.000 0.000 -0.176
2 6.00 1500.01 342 670 0.740 10000.000 0.000 -0.176
3 9.00 1500.01 336 613 0.740 10000.000 0.000 -0.176
4 12.00 1500.01 350 629 0.740 10000.000 0.000 -0.176
5 15.00 1500.01 344 706 0.740 10000.000 0.000 -0.176
6 18.00 1500.01 401 671 0.740 10000.000 0.000 -0.176
7 21.00 1500.01 360 679 0.740 10000.000 0.000 -0.176
8 24.00 1500.01 394 757 0.740 10000.000 0.000 -0.176
9 27.00 1500.01 416 699 0.740 10000.000 0.000 -0.176
10 30.00 1500.01 370 754 0.740 10000.000 0.000 -0.176
11 33.00 1500.01 375 730 0.740 10000.000 0.000 -0.176
12 36.00 1500.01 368 789 0.740 10000.000 0.000 -0.176
13 39.00 1500.01 399 781 0.740 10000.000 0.000 -0.176
14 42.00 1500.01 380 804 0.740 10000.000 0.000 -0.176
15 45.00 1500.01 365 783 0.740 10000.000 0.000 -0.176
16 48.00 1500.01 411 714 0.740 10000.000 0.000 -0.176
17 51.00 1500.01 396 657 0.740 10000.000 0.000 -0.176
18 54.00 1500.01 388 673 0.740 10000.000 0.000 -0.176
19 57.00 1500.01 343 708 0.740 10000.000 0.000 -0.176
20 60.00 1500.01 355 691 0.740 10000.000 0.000 -0.176
21 63.00 1500.01 302 683 0.740 10000.000 0.000 -0.176
22 66.00 1500.01 349 738 0.740 10000.000 0.000 -0.176
23 69.00 1500.01 348 755 0.740 10000.000 0.000 -0.176
24 72.00 1500.01 348 726 0.740 10000.000 0.000 -0.176
25 75.00 1500.01 309 792 0.740 10000.000 0.000 -0.176
26 78.00 1500.01 311 812 0.740 10000.000 0.000 -0.176
27 81.00 1500.01 285 833 0.740 10000.000 0.000 -0.176
28 84.00 1500.01 317 849 0.740 10000.000 0.000 -0.176
29 87.00 1500.01 306 876 0.740 10000.000 0.000 -0.176
30 90.00 1500.01 285 936 0.740 10000.000 0.000 -0.176
31 93.00 1500.01 316 935 0.740 10000.000 0.000 -0.176
32 96.00 1500.01 345 950 0.740 10000.000 0.000 -0.176
33 99.00 1500.01 329 959 0.740 10000.000 0.000 -0.176
34 102.00 1500.01 343 960 0.740 10000.000 0.000 -0.176
35 105.00 1500.01 343 896 0.740 10000.000 0.000 -0.176
36 108.00 1500.01 362 922 0.740 10000.000 0.000 -0.176
37 111.00 1500.01 349 840 0.740 10000.000 0.000 -0.176
38 114.00 1500.01 331 890 0.740 10000.000 0.000 -0.176
39 117.00 1500.01 369 843 0.740 10000.000 0.000 -0.176
40 120.00 1500.01 362 790 0.740 10000.000 0.000 -0.176
41 123.00 1500.01 385 750 0.740 10000.000 0.000 -0.176
42 126.00 1500.01 400 766 0.740 10000.000 0.000 -0.176
43 129.00 1500.01 369 698 0.740 10000.000 0.000 -0.176
44 132.00 1500.01 357 680 0.740 10000.000 0.000 -0.176
45 135.00 1500.01 396 684 0.740 10000.000 0.000 -0.176
46 138.00 1500.01 374 616 0.740 10000.000 0.000 -0.176
47 141.00 1500.01 400 609 0.740 10000.000 0.000 -0.176
48 144.00 1500.01 407 601 0.740 10000.000 0.000 -0.176
49 147.00 1500.01 392 594 0.740 10000.000 0.000 -0.176
50 150.00 1500.01 363 574 0.740 10000.000 0.000 -0.176
51 153.00 1500.01 354 555 0.740 10000.000 0.000 -0.176
52 156.00 1500.01 386 593 0.740 10000.000 0.000 -0.176
53 159.00 1500.01 357 580 0.740 10000.000 0.000 -0.176
54 162.00 1500.01 349 644 0.740 10000.000 0.000 -0.176
55 165.00 1500.01 301 668 0.740 10000.000 0.000 -0.176
56 168.00 1500.01 317 680 0.740 10000.000 0.000 -0.176
57 171.00 1500.01 297 756 0.740 10000.000 0.000 -0.176
58 174.00 1500.01 322 831 0.740 10000.000 0.000 -0.176
59 177.00 1500.01 274 773 0.740 10000.000 0.000 -0.176
60 180.00 1500.01 320 880 0.740 10000.000 0.000 -0.176
61 183.00 1500.01 321 886 0.740 10000.000 0.000 -0.176
62 186.00 1500.01 287 934 0.740 10000.000 0.000 -0.176
63 189.00 1500.01 321 951 0.740 10000.000 0.000 -0.176
64 192.00 1500.01 292 923 0.740 10000.000 0.000 -0.176
65 195.00 1500.01 325 971 0.740 10000.000 0.000 -0.176
66 198.00 1500.01 325 944 0.740 10000.000 0.000 -0.176
67 201.00 1500.01 310 930 0.740 10000.000 0.000 -0.176
68 204.00 1500.01 311 1000 0.740 10000.000 0.000 -0.176
69 207.00 1500.01 369 933 0.740 10000.000 0.000 -0.176
70 210.00 1500.01 357 933 0.740 10000.000 0.000 -0.176
71 213.00 1500.01 336 850 0.740 10000.000 0.000 -0.176
72 216.00 1500.01 365 899 0.740 10000.000 0.000 -0.176
73 219.00 1500.01 383 796 0.740 10000.000 0.000 -0.176
74 222.00 1500.01 367 819 0.740 10000.000 0.000 -0.176
75 225.00 1500.01 403 769 0.740 10000.000 0.000 -0.176
76 228.00 1500.01 390 756 0.740 10000.000 0.000 -0.176
77 231.00 1500.01 359 649 0.740 10000.000 0.000 -0.176
78 234.00 1500.01 394 674 0.740 10000.000 0.000 -0.176
79 237.00 1500.01 379 632 0.740 10000.000 0.000 -0.176
80 240.00 1500.01 379 576 0.740 10000.000 0.000 -0.176
81 243.00 1500.01 386 609 0.740 10000.000 0.000 -0.176
82 246.00 1500.01 359 600 0.740 10000.000 0.000 -0.176
83 249.00 1500.01 385 597 0.740 10000.000 0.000 -0.176
84 252.00 1500.01 345 656 0.740 10000.000 0.000 -0.176
85 255.00 1500.01 344 588 0.740 10000.000 0.000 -0.176
86 258.00 1500.01 355 630 0.740 10000.000 0.000 -0.176
87 261.00 1500.01 342 629 0.740 10000.000 0.000 -0.176
88 264.00 1500.01 341 724 0.740 10000.000 0.000 -0.176
89 267.00 1500.01 331 725 0.740 10000.000 0.000 -0.176
90 270.00 1500.01 313 775 0.740 10000.000 0.000 -0.176
91 273.00 1500.01 323 829 0.740 10000.000 0.000 -0.176
92 276.00 1500.01 322 775 0.740 10000.000 0.000 -0.176
93 279.00 1500.01 325 897 0.740 10000.000 0.000 -0.176
94 282.00 1500.01 318 882 0.740 10000.000 0.000 -0.176
95 285.00 1500.01 309 875 0.740 10000.000 0.000 -0.176
96 288.00 1500.01 319 950 0.740 10000.000 0.000 -0.176
97 291.00 1500.01 318 945 0.740 10000.000 0.000 -0.176
98 294.00 1500.01 348 989 0.740 10000.000 0.000 -0.176
99 297.00 1500.01 340 985 0.740 10000.000 0.000 -0.176
100 300.00 1500.01 345 938 0.740 10000.000 0.000 -0.176
101 303.00 1500.01 356 940 0.740 10000.000 0.000 -0.176
102 306.00 1500.01 380 922 0.740 10000.000 0.000 -0.176
103 309.00 1500.01 351 950 0.740 10000.000 0.000 -0.176
104 312.00 1500.01 353 862 0.740 10000.000 0.000 -0.176
105 315.00 1500.01 326 840 0.740 10000.000 0.000 -0.176
106 318.00 1500.01 324 849 0.740 10000.000 0.000 -0.176
107 321.00 1500.01 344 808 0.740 10000.000 0.000 -0.176
108 324.00 1500.01 347 755 0.740 10000.000 0.000 -0.176
109 327.00 1500.01 314 690 0.740 10000.000 0.000 -0.176
110 330.00 1500.01 320 694 0.740 10000.000 0.000 -0.176
111 333.00 1500.01 342 676 0.740 10000.000 0.000 -0.176
112 336.00 1500.01 316 694 0.740 10000.000 0.000 -0.176
113 339.00 1500.01 328 626 0.740 10000.000 0.000 -0.176
114 342.00 1500.01 329 600 0.740 10000.000 0.000 -0.176
115 345.00 1500.01 363 623 0.740 10000.000 0.000 -0.176
116 348.00 1500.01 364 606 0.740 10000.000 0.000 -0.176
117 351.00 1500.01 332 520 0.740 10000.000 0.000 -0.176
118 354.00 1500.01 382 601 0.740 10000.000 0.000 -0.176
119 357.00 1500.01 372 633 0.740 10000.000 0.000 -0.176
120 360.00 1500.01 392 647 0.740 10000.000 0.000 -0.176
121 363.00 1500.01 429 698 0.740 10000.000 0.000 -0.176
122 366.00 1500.01 393 732 0.740 10000.000 0.000 -0.176
123 369.00 1500.01 379 685 0.740 10000.000 0.000 -0.176
124 372.00 1500.01 379 775 0.740 10000.000 0.000 -0.176
125 375.00 1500.01 387 791 0.740 10000.000 0.000 -0.176
126 378.00 1500.01 362 848 0.740 10000.000 0.000 -0.176
127 381.00 1500.01 386 889 0.740 10000.000 0.000 -0.176
128 384.00 1500.01 404 910 0.740 10000.000 0.000 -0.176
129 387.00 1500.01 376 847 0.740 10000.000 0.000 -0.176
130 390.00 1500.01 354 929 0.740 10000.000 0.000 -0.176
131 393.00 1500.01 344 948 0.740 10000.000 0.000 -0.176
132 396.00 1500.01 340 956 0.740 10000.000 0.000 -0.176
133 399.00 1500.01 340 956 0.740 10000.000 0.000 -0.176
134 402.00 1500.01 308 913 0.740 10000.000 0.000 -0.176
135 405.00 1500.01 308 927 0.740 10000.000 0.000 -0.176
136 408.00 1500.01 363 909 0.740 10000.000 0.000 -0.176
137 411.00 1500.01 310 882 0.740 10000.000 0.000 -0.176
138 414.00 1500.01 326 883 0.740 10000.000 0.000 -0.176
139 417.00 1500.01 277 819 0.740 10000.000 0.000 -0.176
140 420.00 1500.01 346 838 0.740 10000.000 0.000 -0.176
141 423.00 1500.01 278 804 0.740 10000.000 0.000 -0.176
142 426.00 1500.01 310 727 0.740 10000.000 0.000 -0.176
143 429.00 1500.01 316 682 0.740 10000.000 0.000 -0.176
144 432.00 1500.01 318 679 0.740 10000.000 0.000 -0.176
