# BinNR microsec tot-time (s)  O-Beam AUX Ampl(V) f(Hz) phase(deg) chi(pos)
0 0.00 1500.01 78 95 0.740 10000.000 0.000 0.154
1 3.00 1500.01 170 197 0.740 10000.000 0.000 0.154
2 6.00 1500.01 181 199 0.740 10000.000 0.000 0.154
3 9.00 1500.01 167 233 0.740 10000.000 0.000 0.154
4 12.00 1500.01 193 204 0.740 10000.000 0.000 0.154
5 15.00 1500.01 205 209 0.740 10000.000 0.000 0.154
6 18.00 1500.01 221 231 0.740 10000.000 0.000 0.154
7 21.00 1500.01 230 234 0.740 10000.000 0.000 0.154
8 24.00 1500.01 212 297 0.740 10000.000 0.000 0.154
9 27.00 1500.01 231 265 0.740 10000.000 0.000 0.154
10 30.00 1500.01 238 271 0.740 10000.000 0.000 0.154
11 33.00 1500.01 219 312 0.740 10000.000 0.000 0.154
12 36.00 1500.01 243 288 0.740 10000.000 0.000 0.154
13 39.00 1500.01 248 285 0.740 10000.000 0.000 0.154
14 42.00 1500.01 253 279 0.740 10000.000 0.000 0.154
15 45.00 1500.01 244 274 0.740 10000.000 0.000 0.154
16 48.00 1500.01 216 244 0.740 10000.000 0.000 0.154
17 51.00 1500.01 194 233 0.740 10000.000 0.000 0.154
18 54.00 1500.01 198 224 0.740 10000.000 0.000 0.154
19 57.00 1500.01 215 206 0.740 10000.000 0.000 0.154
20 60.00 1500.01 186 214 0.740 10000.000 0.000 0.154
21 63.00 1500.01 153 219 0.740 10000.000 0.000 0.154
22 66.00 1500.01 203 242 0.740 10000.000 0.000 0.154
23 69.00 1500.01 175 236 0.740 10000.000 0.000 0.154
24 72.00 1500.01 174 291 0.740 10000.000 0.000 0.154
25 75.00 1500.01 131 275 0.740 10000.000 0.000 0.154
26 78.00 1500.01 157 316 0.740 10000.000 0.000 0.154
27 81.00 1500.01 158 295 0.740 10000.000 0.000 0.154
28 84.00 1500.01 145 346 0.740 10000.000 0.000 0.154
29 87.00 1500.01 147 397 0.740 10000.000 0.000 0.154
30 90.00 1500.01 146 374 0.740 10000.000 0.000 0.154
31 93.00 1500.01 154 442 0.740 10000.000 0.000 0.154
32 96.00 1500.01 156 446 0.740 10000.000 0.000 0.154
33 99.00 1500.01 164 406 0.740 10000.000 0.000 0.154
34 102.00 1500.01 175 449 0.740 10000.000 0.000 0.154
35 105.00 1500.01 201 400 0.740 10000.000 0.000 0.154
36 108.00 1500.01 178 380 0.740 10000.000 0.000 0.154
37 111.00 1500.01 201 325 0.740 10000.000 0.000 0.154
38 114.00 1500.01 189 347 0.740 10000.000 0.000 0.154
39 117.00 1500.01 173 309 0.740 10000.000 0.000 0.154
40 120.00 1500.01 231 316 0.740 10000.000 0.000 0.154
41 123.00 1500.01 234 305 0.740 10000.000 0.000 0.154
42 126.00 1500.01 223 285 0.740 10000.000 0.000 0.154
43 129.00 1500.01 230 239 0.740 10000.000 0.000 0.154
44 132.00 1500.01 259 207 0.740 10000.000 0.000 0.154
45 135.00 1500.01 222 196 0.740 10000.000 0.000 0.154
46 138.00 1500.01 209 190 0.740 10000.000 0.000 0.154
47 141.00 1500.01 219 195 0.740 10000.000 0.000 0.154
48 144.00 1500.01 222 172 0.740 10000.000 0.000 0.154
49 147.00 1500.01 253 182 0.740 10000.000 0.000 0.154
50 150.00 1500.01 237 183 0.740 10000.000 0.000 0.154
51 153.00 1500.01 197 170 0.740 10000.000 0.000 0.154
52 156.00 1500.01 239 187 0.740 10000.000 0.000 0.154
53 159.00 1500.01 196 202 0.740 10000.000 0.000 0.154
54 162.00 1500.01 195 210 0.740 10000.000 0.000 0.154
55 165.00 1500.01 162 238 0.740 10000.000 0.000 0.154
56 168.00 1500.01 168 245 0.740 10000.000 0.000 0.154
57 171.00 1500.01 170 255 0.740 10000.000 0.000 0.154
58 174.00 1500.01 153 269 0.740 10000.000 0.000 0.154
59 177.00 1500.01 170 356 0.740 10000.000 0.000 0.154
60 180.00 1500.01 160 325 0.740 10000.000 0.000 0.154
61 183.00 1500.01 155 353 0.740 10000.000 0.000 0.154
62 186.00 1500.01 146 394 0.740 10000.000 0.000 0.154
63 189.00 1500.01 152 389 0.740 10000.000 0.000 0.154
64 192.00 1500.01 167 401 0.740 10000.000 0.000 0.154
65 195.00 1500.01 141 486 0.740 10000.000 0.000 0.154
66 198.00 1500.01 144 425 0.740 10000.000 0.000 0.154
67 201.00 1500.01 153 396 0.740 10000.000 0.000 0.154
68 204.00 1500.01 178 446 0.740 10000.000 0.000 0.154
69 207.00 1500.01 195 386 0.740 10000.000 0.000 0.154
70 210.00 1500.01 191 367 0.740 10000.000 0.000 0.154
71 213.00 1500.01 164 338 0.740 10000.000 0.000 0.154
72 216.00 1500.01 203 310 0.740 10000.000 0.000 0.154
73 219.00 1500.01 229 301 0.740 10000.000 0.000 0.154
74 222.00 1500.01 218 262 0.740 10000.000 0.000 0.154
75 225.00 1500.01 221 253 0.740 10000.000 0.000 0.154
76 228.00 1500.01 222 229 0.740 10000.000 0.000 0.154
77 231.00 1500.01 241 223 0.740 10000.000 0.000 0.154
78 234.00 1500.01 248 205 0.740 10000.000 0.000 0.154
79 237.00 1500.01 245 188 0.740 10000.000 0.000 0.154
80 240.00 1500.01 239 193 0.740 10000.000 0.000 0.154
81 243.00 1500.01 240 178 0.740 10000.000 0.000 0.154
82 246.00 1500.01 221 158 0.740 10000.000 0.000 0.154
83 249.00 1500.01 215 164 0.740 10000.000 0.000 0.154
84 252.00 1500.01 242 191 0.740 10000.000 0.000 0.154
85 255.00 1500.01 204 172 0.740 10000.000 0.000 0.154
86 258.00 1500.01 190 196 0.740 10000.000 0.000 0.154
87 261.00 1500.01 179 205 0.740 10000.000 0.000 0.154
88 264.00 1500.01 188 223 0.740 10000.000 0.000 0.154
89 267.00 1500.01 193 230 0.740 10000.000 0.000 0.154
90 270.00 1500.01 189 255 0.740 10000.000 0.000 0.154
91 273.00 1500.01 170 278 0.740 10000.000 0.000 0.154
92 276.00 1500.01 149 336 0.740 10000.000 0.000 0.154
93 279.00 1500.01 166 308 0.740 10000.000 0.000 0.154
94 282.00 1500.01 181 344 0.740 10000.000 0.000 0.154
95 285.00 1500.01 168 379 0.740 10000.000 0.000 0.154
96 288.00 1500.01 189 399 0.740 10000.000 0.000 0.154
97 291.00 1500.01 160 430 0.740 10000.000 0.000 0.154
98 294.00 1500.01 177 417 0.740 10000.000 0.000 0.154
99 297.00 1500.01 205 416 0.740 10000.000 0.000 0.154
100 300.00 1500.01 200 408 0.740 10000.000 0.000 0.154
101 303.00 1500.01 175 378 0.740 10000.000 0.000 0.154
102 306.00 1500.01 176 414 0.740 10000.000 0.000 0.154
103 309.00 1500.01 182 360 0.740 10000.000 0.000 0.154
104 312.00 1500.01 197 364 0.740 10000.000 0.000 0.154
105 315.00 1500.01 171 351 0.740 10000.000 0.000 0.154
106 318.00 1500.01 170 311 0.740 10000.000 0.000 0.154
107 321.00 1500.01 179 322 0.740 10000.000 0.000 0.154
108 324.00 1500.01 151 263 0.740 10000.000 0.000 0.154
109 327.00 1500.01 164 250 0.740 10000.000 0.000 0.154
110 330.00 1500.01 162 226 0.740 10000.000 0.000 0.154
111 333.00 1500.01 170 207 0.740 10000.000 0.000 0.154
112 336.00 1500.01 167 180 0.740 10000.000 0.000 0.154
113 339.00 1500.01 188 188 0.740 10000.000 0.000 0.154
114 342.00 1500.01 169 194 0.740 10000.000 0.000 0.154
115 345.00 1500.01 197 159 0.740 10000.000 0.000 0.154
116 348.00 1500.01 188 202 0.740 10000.000 0.000 0.154
117 351.00 1500.01 222 173 0.740 10000.000 0.000 0.154
118 354.00 1500.01 222 212 0.740 10000.000 0.000 0.154
119 357.00 1500.01 195 190 0.740 10000.000 0.000 0.154
120 360.00 1500.01 230 197 0.740 10000.000 0.000 0.154
121 363.00 1500.01 225 206 0.740 10000.000 0.000 0.154
122 366.00 1500.01 234 250 0.740 10000.000 0.000 0.154
123 369.00 1500.01 231 245 0.740 10000.000 0.000 0.154
124 372.00 1500.01 244 301 0.740 10000.000 0.000 0.154
125 375.00 1500.01 220 259 0.740 10000.000 0.000 0.154
126 378.00 1500.01 240 318 0.740 10000.000 0.000 0.154
127 381.00 1500.01 218 342 0.740 10000.000 0.000 0.154
128 384.00 1500.01 245 365 0.740 10000.000 0.000 0.154
129 387.00 1500.01 238 367 0.740 10000.000 0.000 0.154
130 390.00 1500.01 211 423 0.740 10000.000 0.000 0.154
131 393.00 1500.01 199 438 0.740 10000.000 0.000 0.154
132 396.00 1500.01 193 465 0.740 10000.000 0.000 0.154
133 399.00 1500.01 172 433 0.740 10000.000 0.000 0.154
134 402.00 1500.01 151 435 0.740 10000.000 0.000 0.154
135 405.00 1500.01 145 386 0.740 10000.000 0.000 0.154
136 408.00 1500.01 171 394 0.740 10000.000 0.000 0.154
137 411.00 1500.01 146 406 0.740 10000.000 0.000 0.154
138 414.00 1500.01 172 340 0.740 10000.000 0.000 0.154
139 417.00 1500.01 152 350 0.740 10000.000 0.000 0.154
140 420.00 1500.01 158 294 0.740 10000.000 0.000 0.154
141 423.00 1500.01 148 293 0.740 10000.000 0.000 0.154
142 426.00 1500.01 149 258 0.740 10000.000 0.000 0.154
143 429.00 1500.01 143 241 0.740 10000.000 0.000 0.154
144 432.00 1500.01 177 224 0.740 10000.000 0.000 0.154
