# BinNR microsec tot-time (s)  O-Beam AUX Ampl(V) f(Hz) phase(deg) chi(pos)
0 0.00 1500.00 96 380 0.740 10000.000 0.000 0.835
1 3.00 1500.00 204 709 0.740 10000.000 0.000 0.835
2 6.00 1500.00 202 750 0.740 10000.000 0.000 0.835
3 9.00 1500.00 196 687 0.740 10000.000 0.000 0.835
4 12.00 1500.00 162 723 0.740 10000.000 0.000 0.835
5 15.00 1500.00 191 730 0.740 10000.000 0.000 0.835
6 18.00 1500.00 170 664 0.740 10000.000 0.000 0.835
7 21.00 1500.00 172 628 0.740 10000.000 0.000 0.835
8 24.00 1500.00 146 645 0.740 10000.000 0.000 0.835
9 27.00 1500.00 146 628 0.740 10000.000 0.000 0.835
10 30.00 1500.00 168 594 0.740 10000.000 0.000 0.835
11 33.00 1500.00 137 553 0.740 10000.000 0.000 0.835
12 36.00 1500.00 139 591 0.740 10000.000 0.000 0.835
13 39.00 1500.00 143 546 0.740 10000.000 0.000 0.835
14 42.00 1500.00 146 598 0.740 10000.000 0.000 0.835
15 45.00 1500.00 135 614 0.740 10000.000 0.000 0.835
16 48.00 1500.00 144 701 0.740 10000.000 0.000 0.835
17 51.00 1500.00 168 684 0.740 10000.000 0.000 0.835
18 54.00 1500.00 178 645 0.740 10000.000 0.000 0.835
19 57.00 1500.00 174 691 0.740 10000.000 0.000 0.835
20 60.00 1500.00 183 657 0.740 10000.000 0.000 0.835
21 63.00 1500.00 192 634 0.740 10000.000 0.000 0.835
22 66.00 1500.00 202 679 0.740 10000.000 0.000 0.835
23 69.00 1500.00 190 664 0.740 10000.000 0.000 0.835
24 72.00 1500.00 209 630 0.740 10000.000 0.000 0.835
25 75.00 1500.00 223 641 0.740 10000.000 0.000 0.835
26 78.00 1500.00 188 576 0.740 10000.000 0.000 0.835
27 81.00 1500.00 220 531 0.740 10000.000 0.000 0.835
28 84.00 1500.00 214 476 0.740 10000.000 0.000 0.835
29 87.00 1500.00 211 437 0.740 10000.000 0.000 0.835
30 90.00 1500.00 222 463 0.740 10000.000 0.000 0.835
31 93.00 1500.00 208 412 0.740 10000.000 0.000 0.835
32 96.00 1500.00 229 433 0.740 10000.000 0.000 0.835
33 99.00 1500.00 200 395 0.740 10000.000 0.000 0.835
34 102.00 1500.00 189 412 0.740 10000.000 0.000 0.835
35 105.00 1500.00 207 420 0.740 10000.000 0.000 0.835
36 108.00 1500.00 200 470 0.740 10000.000 0.000 0.835
37 111.00 1500.00 152 472 0.740 10000.000 0.000 0.835
38 114.00 1500.00 179 473 0.740 10000.000 0.000 0.835
39 117.00 1500.00 163 473 0.740 10000.000 0.000 0.835
40 120.00 1500.00 158 549 0.740 10000.000 0.000 0.835
41 123.00 1500.00 137 574 0.740 10000.000 0.000 0.835
42 126.00 1500.00 162 664 0.740 10000.000 0.000 0.835
43 129.00 1500.00 134 652 0.740 10000.000 0.000 0.835
44 132.00 1500.00 131 599 0.740 10000.000 0.000 0.835
45 135.00 1500.00 135 716 0.740 10000.000 0.000 0.835
46 138.00 1500.00 130 721 0.740 10000.000 0.000 0.835
47 141.00 1500.00 142 750 0.740 10000.000 0.000 0.835
48 144.00 1500.00 157 800 0.740 10000.000 0.000 0.835
49 147.00 1500.00 155 737 0.740 10000.000 0.000 0.835
50 150.00 1500.00 133 727 0.740 10000.000 0.000 0.835
51 153.00 1500.00 159 713 0.740 10000.000 0.000 0.835
52 156.00 1500.00 160 734 0.740 10000.000 0.000 0.835
53 159.00 1500.00 161 745 0.740 10000.000 0.000 0.835
54 162.00 1500.00 180 685 0.740 10000.000 0.000 0.835
55 165.00 1500.00 191 676 0.740 10000.000 0.000 0.835
56 168.00 1500.00 215 640 0.740 10000.000 0.000 0.835
57 171.00 1500.00 215 588 0.740 10000.000 0.000 0.835
58 174.00 1500.00 212 573 0.740 10000.000 0.000 0.835
59 177.00 1500.00 236 519 0.740 10000.000 0.000 0.835
60 180.00 1500.00 221 507 0.740 10000.000 0.000 0.835
61 183.00 1500.00 221 461 0.740 10000.000 0.000 0.835
62 186.00 1500.00 218 454 0.740 10000.000 0.000 0.835
63 189.00 1500.00 219 388 0.740 10000.000 0.000 0.835
64 192.00 1500.00 232 431 0.740 10000.000 0.000 0.835
65 195.00 1500.00 219 425 0.740 10000.000 0.000 0.835
66 198.00 1500.00 192 376 0.740 10000.000 0.000 0.835
67 201.00 1500.00 215 406 0.740 10000.000 0.000 0.835
68 204.00 1500.00 215 435 0.740 10000.000 0.000 0.835
69 207.00 1500.00 191 399 0.740 10000.000 0.000 0.835
70 210.00 1500.00 175 465 0.740 10000.000 0.000 0.835
71 213.00 1500.00 163 467 0.740 10000.000 0.000 0.835
72 216.00 1500.00 165 519 0.740 10000.000 0.000 0.835
73 219.00 1500.00 172 567 0.740 10000.000 0.000 0.835
74 222.00 1500.00 143 583 0.740 10000.000 0.000 0.835
75 225.00 1500.00 122 601 0.740 10000.000 0.000 0.835
76 228.00 1500.00 167 639 0.740 10000.000 0.000 0.835
77 231.00 1500.00 120 644 0.740 10000.000 0.000 0.835
78 234.00 1500.00 122 709 0.740 10000.000 0.000 0.835
79 237.00 1500.00 117 704 0.740 10000.000 0.000 0.835
80 240.00 1500.00 140 759 0.740 10000.000 0.000 0.835
81 243.00 1500.00 153 735 0.740 10000.000 0.000 0.835
82 246.00 1500.00 145 785 0.740 10000.000 0.000 0.835
83 249.00 1500.00 148 751 0.740 10000.000 0.000 0.835
84 252.00 1500.00 154 764 0.740 10000.000 0.000 0.835
85 255.00 1500.00 161 726 0.740 10000.000 0.000 0.835
86 258.00 1500.00 191 731 0.740 10000.000 0.000 0.835
87 261.00 1500.00 197 724 0.740 10000.000 0.000 0.835
88 264.00 1500.00 182 657 0.740 10000.000 0.000 0.835
89 267.00 1500.00 206 616 0.740 10000.000 0.000 0.835
90 270.00 1500.00 216 644 0.740 10000.000 0.000 0.835
91 273.00 1500.00 215 591 0.740 10000.000 0.000 0.835
92 276.00 1500.00 196 546 0.740 10000.000 0.000 0.835
93 279.00 1500.00 220 525 0.740 10000.000 0.000 0.835
94 282.00 1500.00 216 525 0.740 10000.000 0.000 0.835
95 285.00 1500.00 206 435 0.740 10000.000 0.000 0.835
96 288.00 1500.00 233 440 0.740 10000.000 0.000 0.835
97 291.00 1500.00 174 417 0.740 10000.000 0.000 0.835
98 294.00 1500.00 194 429 0.740 10000.000 0.000 0.835
99 297.00 1500.00 206 413 0.740 10000.000 0.000 0.835
100 300.00 1500.00 172 384 0.740 10000.000 0.000 0.835
101 303.00 1500.00 157 354 0.740 10000.000 0.000 0.835
102 306.00 1500.00 163 433 0.740 10000.000 0.000 0.835
103 309.00 1500.00 208 449 0.740 10000.000 0.000 0.835
104 312.00 1500.00 169 496 0.740 10000.000 0.000 0.835
105 315.00 1500.00 207 500 0.740 10000.000 0.000 0.835
106 318.00 1500.00 212 555 0.740 10000.000 0.000 0.835
107 321.00 1500.00 230 580 0.740 10000.000 0.000 0.835
108 324.00 1500.00 189 586 0.740 10000.000 0.000 0.835
109 327.00 1500.00 194 584 0.740 10000.000 0.000 0.835
110 330.00 1500.00 216 633 0.740 10000.000 0.000 0.835
111 333.00 1500.00 181 717 0.740 10000.000 0.000 0.835
112 336.00 1500.00 181 773 0.740 10000.000 0.000 0.835
113 339.00 1500.00 203 737 0.740 10000.000 0.000 0.835
114 342.00 1500.00 204 722 0.740 10000.000 0.000 0.835
115 345.00 1500.00 169 763 0.740 10000.000 0.000 0.835
116 348.00 1500.00 158 778 0.740 10000.000 0.000 0.835
117 351.00 1500.00 161 752 0.740 10000.000 0.000 0.835
118 354.00 1500.00 156 820 0.740 10000.000 0.000 0.835
119 357.00 1500.00 138 709 0.740 10000.000 0.000 0.835
120 360.00 1500.00 136 708 0.740 10000.000 0.000 0.835
121 363.00 1500.00 146 661 0.740 10000.000 0.000 0.835
122 366.00 1500.00 151 631 0.740 10000.000 0.000 0.835
123 369.00 1500.00 139 572 0.740 10000.000 0.000 0.835
124 372.00 1500.00 123 603 0.740 10000.000 0.000 0.835
125 375.00 1500.00 143 580 0.740 10000.000 0.000 0.835
126 378.00 1500.00 143 518 0.740 10000.000 0.000 0.835
127 381.00 1500.00 146 484 0.740 10000.000 0.000 0.835
128 384.00 1500.00 156 451 0.740 10000.000 0.000 0.835
129 387.00 1500.00 167 435 0.740 10000.000 0.000 0.835
130 390.00 1500.00 155 444 0.740 10000.000 0.000 0.835
131 393.00 1500.00 183 403 0.740 10000.000 0.000 0.835
132 396.00 1500.00 202 393 0.740 10000.000 0.000 0.835
133 399.00 1500.00 208 365 0.740 10000.000 0.000 0.835
134 402.00 1500.00 192 436 0.740 10000.000 0.000 0.835
135 405.00 1500.00 201 436 0.740 10000.000 0.000 0.835
136 408.00 1500.00 217 453 0.740 10000.000 0.000 0.835
137 411.00 1500.00 199 454 0.740 10000.000 0.000 0.835
138 414.00 1500.00 195 494 0.740 10000.000 0.000 0.835
139 417.00 1500.00 221 497 0.740 10000.000 0.000 0.835
140 420.00 1500.00 226 547 0.740 10000.000 0.000 0.835
141 423.00 1500.00 210 600 0.740 10000.000 0.000 0.835
142 426.00 1500.00 226 633 0.740 10000.000 0.000 0.835
143 429.00 1500.00 219 627 0.740 10000.000 0.000 0.835
144 432.00 1500.00 207 690 0.740 10000.000 0.000 0.835
