# BinNR microsec tot-time (s)  O-Beam AUX Ampl(V) f(Hz) phase(deg) chi(pos)
0 0.00 1500.00 204 416 0.740 10000.000 0.000 -0.330
1 3.00 1500.00 413 927 0.740 10000.000 0.000 -0.330
2 6.00 1500.00 387 905 0.740 10000.000 0.000 -0.330
3 9.00 1500.00 424 909 0.740 10000.000 0.000 -0.330
4 12.00 1500.00 414 995 0.740 10000.000 0.000 -0.330
5 15.00 1500.00 462 969 0.740 10000.000 0.000 -0.330
6 18.00 1500.00 466 950 0.740 10000.000 0.000 -0.330
7 21.00 1500.00 426 931 0.740 10000.000 0.000 -0.330
8 24.00 1500.00 438 1115 0.740 10000.000 0.000 -0.330
9 27.00 1500.00 420 1014 0.740 10000.000 0.000 -0.330
10 30.00 1500.00 376 1006 0.740 10000.000 0.000 -0.330
11 33.00 1500.00 430 1012 0.740 10000.000 0.000 -0.330
12 36.00 1500.00 436 1034 0.740 10000.000 0.000 -0.330
13 39.00 1500.00 447 1075 0.740 10000.000 0.000 -0.330
14 42.00 1500.00 408 1040 0.740 10000.000 0.000 -0.330
15 45.00 1500.00 444 996 0.740 10000.000 0.000 -0.330
16 48.00 1500.00 408 1007 0.740 10000.000 0.000 -0.330
17 51.00 1500.00 456 998 0.740 10000.000 0.000 -0.330
18 54.00 1500.00 414 966 0.740 10000.000 0.000 -0.330
19 57.00 1500.00 436 943 0.740 10000.000 0.000 -0.330
20 60.00 1500.00 420 933 0.740 10000.000 0.000 -0.330
21 63.00 1500.00 386 934 0.740 10000.000 0.000 -0.330
22 66.00 1500.00 410 1005 0.740 10000.000 0.000 -0.330
23 69.00 1500.00 384 944 0.740 10000.000 0.000 -0.330
24 72.00 1500.00 401 1002 0.740 10000.000 0.000 -0.330
25 75.00 1500.00 404 1021 0.740 10000.000 0.000 -0.330
26 78.00 1500.00 366 1087 0.740 10000.000 0.000 -0.330
27 81.00 1500.00 361 1112 0.740 10000.000 0.000 -0.330
28 84.00 1500.00 434 1086 0.740 10000.000 0.000 -0.330
29 87.00 1500.00 354 1138 0.740 10000.000 0.000 -0.330
30 90.00 1500.00 389 1178 0.740 10000.000 0.000 -0.330
31 93.00 1500.00 363 1221 0.740 10000.000 0.000 -0.330
32 96.00 1500.00 402 1160 0.740 10000.000 0.000 -0.330
33 99.00 1500.00 398 1177 0.740 10000.000 0.000 -0.330
34 102.00 1500.00 418 1185 0.740 10000.000 0.000 -0.330
35 105.00 1500.00 390 1151 0.740 10000.000 0.000 -0.330
36 108.00 1500.00 426 1209 0.740 10000.000 0.000 -0.330
37 111.00 1500.00 427 1113 0.740 10000.000 0.000 -0.330
38 114.00 1500.00 460 1134 0.740 10000.000 0.000 -0.330
39 117.00 1500.00 434 1051 0.740 10000.000 0.000 -0.330
40 120.00 1500.00 415 1046 0.740 10000.000 0.000 -0.330
41 123.00 1500.00 420 981 0.740 10000.000 0.000 -0.330
42 126.00 1500.00 447 1008 0.740 10000.000 0.000 -0.330
43 129.00 1500.00 436 923 0.740 10000.000 0.000 -0.330
44 132.00 1500.00 455 1000 0.740 10000.000 0.000 -0.330
45 135.00 1500.00 454 896 0.740 10000.000 0.000 -0.330
46 138.00 1500.00 426 839 0.740 10000.000 0.000 -0.330
47 141.00 1500.00 459 884 0.740 10000.000 0.000 -0.330
48 144.00 1500.00 431 916 0.740 10000.000 0.000 -0.330
49 147.00 1500.00 426 830 0.740 10000.000 0.000 -0.330
50 150.00 1500.00 381 901 0.740 10000.000 0.000 -0.330
51 153.00 1500.00 425 895 0.740 10000.000 0.000 -0.330
52 156.00 1500.00 441 928 0.740 10000.000 0.000 -0.330
53 159.00 1500.00 439 923 0.740 10000.000 0.000 -0.330
54 162.00 1500.00 417 969 0.740 10000.000 0.000 -0.330
55 165.00 1500.00 406 958 0.740 10000.000 0.000 -0.330
56 168.00 1500.00 411 1064 0.740 10000.000 0.000 -0.330
57 171.00 1500.00 396 981 0.740 10000.000 0.000 -0.330
58 174.00 1500.00 390 1014 0.740 10000.000 0.000 -0.330
59 177.00 1500.00 405 1063 0.740 10000.000 0.000 -0.330
60 180.00 1500.00 385 1096 0.740 10000.000 0.000 -0.330
61 183.00 1500.00 374 1111 0.740 10000.000 0.000 -0.330
62 186.00 1500.00 393 1180 0.740 10000.000 0.000 -0.330
63 189.00 1500.00 395 1149 0.740 10000.000 0.000 -0.330
64 192.00 1500.00 384 1168 0.740 10000.000 0.000 -0.330
65 195.00 1500.00 410 1151 0.740 10000.000 0.000 -0.330
66 198.00 1500.00 411 1194 0.740 10000.000 0.000 -0.330
67 201.00 1500.00 411 1122 0.740 10000.000 0.000 -0.330
68 204.00 1500.00 413 1200 0.740 10000.000 0.000 -0.330
69 207.00 1500.00 404 1158 0.740 10000.000 0.000 -0.330
70 210.00 1500.00 404 1079 0.740 10000.000 0.000 -0.330
71 213.00 1500.00 417 1138 0.740 10000.000 0.000 -0.330
72 216.00 1500.00 431 1154 0.740 10000.000 0.000 -0.330
73 219.00 1500.00 404 1084 0.740 10000.000 0.000 -0.330
74 222.00 1500.00 454 1104 0.740 10000.000 0.000 -0.330
75 225.00 1500.00 446 1045 0.740 10000.000 0.000 -0.330
76 228.00 1500.00 423 997 0.740 10000.000 0.000 -0.330
77 231.00 1500.00 420 937 0.740 10000.000 0.000 -0.330
78 234.00 1500.00 485 940 0.740 10000.000 0.000 -0.330
79 237.00 1500.00 429 981 0.740 10000.000 0.000 -0.330
80 240.00 1500.00 454 878 0.740 10000.000 0.000 -0.330
81 243.00 1500.00 435 866 0.740 10000.000 0.000 -0.330
82 246.00 1500.00 472 904 0.740 10000.000 0.000 -0.330
83 249.00 1500.00 421 873 0.740 10000.000 0.000 -0.330
84 252.00 1500.00 408 884 0.740 10000.000 0.000 -0.330
85 255.00 1500.00 397 876 0.740 10000.000 0.000 -0.330
86 258.00 1500.00 423 947 0.740 10000.000 0.000 -0.330
87 261.00 1500.00 416 953 0.740 10000.000 0.000 -0.330
88 264.00 1500.00 437 1008 0.740 10000.000 0.000 -0.330
89 267.00 1500.00 429 971 0.740 10000.000 0.000 -0.330
90 270.00 1500.00 427 1032 0.740 10000.000 0.000 -0.330
91 273.00 1500.00 370 1056 0.740 10000.000 0.000 -0.330
92 276.00 1500.00 395 1083 0.740 10000.000 0.000 -0.330
93 279.00 1500.00 398 1126 0.740 10000.000 0.000 -0.330
94 282.00 1500.00 403 1138 0.740 10000.000 0.000 -0.330
95 285.00 1500.00 410 1096 0.740 10000.000 0.000 -0.330
96 288.00 1500.00 394 1131 0.740 10000.000 0.000 -0.330
97 291.00 1500.00 417 1126 0.740 10000.000 0.000 -0.330
98 294.00 1500.00 442 1158 0.740 10000.000 0.000 -0.330
99 297.00 1500.00 410 1203 0.740 10000.000 0.000 -0.330
100 300.00 1500.00 408 1228 0.740 10000.000 0.000 -0.330
101 303.00 1500.00 431 1167 0.740 10000.000 0.000 -0.330
102 306.00 1500.00 398 1184 0.740 10000.000 0.000 -0.330
103 309.00 1500.00 379 1138 0.740 10000.000 0.000 -0.330
104 312.00 1500.00 431 1153 0.740 10000.000 0.000 -0.330
105 315.00 1500.00 392 1093 0.740 10000.000 0.000 -0.330
106 318.00 1500.00 429 1149 0.740 10000.000 0.000 -0.330
107 321.00 1500.00 399 1016 0.740 10000.000 0.000 -0.330
108 324.00 1500.00 431 1015 0.740 10000.000 0.000 -0.330
109 327.00 1500.00 421 1001 0.740 10000.000 0.000 -0.330
110 330.00 1500.00 385 919 0.740 10000.000 0.000 -0.330
111 333.00 1500.00 413 931 0.740 10000.000 0.000 -0.330
112 336.00 1500.00 399 945 0.740 10000.000 0.000 -0.330
113 339.00 1500.00 381 945 0.740 10000.000 0.000 -0.330
114 342.00 1500.00 407 886 0.740 10000.000 0.000 -0.330
115 345.00 1500.00 435 859 0.740 10000.000 0.000 -0.330
116 348.00 1500.00 409 901 0.740 10000.000 0.000 -0.330
117 351.00 1500.00 423 861 0.740 10000.000 0.000 -0.330
118 354.00 1500.00 458 903 0.740 10000.000 0.000 -0.330
119 357.00 1500.00 456 906 0.740 10000.000 0.000 -0.330
120 360.00 1500.00 422 940 0.740 10000.000 0.000 -0.330
121 363.00 1500.00 424 1001 0.740 10000.000 0.000 -0.330
122 366.00 1500.00 425 956 0.740 10000.000 0.000 -0.330
123 369.00 1500.00 425 966 0.740 10000.000 0.000 -0.330
124 372.00 1500.00 455 1002 0.740 10000.000 0.000 -0.330
125 375.00 1500.00 464 1041 0.740 10000.000 0.000 -0.330
126 378.00 1500.00 500 1143 0.740 10000.000 0.000 -0.330
127 381.00 1500.00 453 1070 0.740 10000.000 0.000 -0.330
128 384.00 1500.00 465 1220 0.740 10000.000 0.000 -0.330
129 387.00 1500.00 363 1095 0.740 10000.000 0.000 -0.330
130 390.00 1500.00 409 1151 0.740 10000.000 0.000 -0.330
131 393.00 1500.00 445 1131 0.740 10000.000 0.000 -0.330
132 396.00 1500.00 409 1199 0.740 10000.000 0.000 -0.330
133 399.00 1500.00 406 1145 0.740 10000.000 0.000 -0.330
134 402.00 1500.00 420 1152 0.740 10000.000 0.000 -0.330
135 405.00 1500.00 370 1146 0.740 10000.000 0.000 -0.330
136 408.00 1500.00 417 1158 0.740 10000.000 0.000 -0.330
137 411.00 1500.00 424 1166 0.740 10000.000 0.000 -0.330
138 414.00 1500.00 403 1160 0.740 10000.000 0.000 -0.330
139 417.00 1500.00 424 1081 0.740 10000.000 0.000 -0.330
140 420.00 1500.00 380 1081 0.740 10000.000 0.000 -0.330
141 423.00 1500.00 371 1012 0.740 10000.000 0.000 -0.330
142 426.00 1500.00 405 995 0.740 10000.000 0.000 -0.330
143 429.00 1500.00 396 1002 0.740 10000.000 0.000 -0.330
144 432.00 1500.00 399 1000 0.740 10000.000 0.000 -0.330
