# BinNR microsec tot-time (s)  O-Beam AUX Ampl(V) f(Hz) phase(deg) chi(pos)
0 0.00 1200.02 28 99 1.100 10000.000 0.000 -1.505
1 3.00 1200.02 94 242 1.100 10000.000 0.000 -1.505
2 6.00 1200.02 54 221 1.100 10000.000 0.000 -1.505
3 9.00 1200.02 67 205 1.100 10000.000 0.000 -1.505
4 12.00 1200.02 58 213 1.100 10000.000 0.000 -1.505
5 15.00 1200.02 81 177 1.100 10000.000 0.000 -1.505
6 18.00 1200.02 69 191 1.100 10000.000 0.000 -1.505
7 21.00 1200.02 82 129 1.100 10000.000 0.000 -1.505
8 24.00 1200.02 79 132 1.100 10000.000 0.000 -1.505
9 27.00 1200.02 78 133 1.100 10000.000 0.000 -1.505
10 30.00 1200.02 75 133 1.100 10000.000 0.000 -1.505
11 33.00 1200.02 67 113 1.100 10000.000 0.000 -1.505
12 36.00 1200.02 91 116 1.100 10000.000 0.000 -1.505
13 39.00 1200.02 76 120 1.100 10000.000 0.000 -1.505
14 42.00 1200.02 87 141 1.100 10000.000 0.000 -1.505
15 45.00 1200.02 76 161 1.100 10000.000 0.000 -1.505
16 48.00 1200.02 81 173 1.100 10000.000 0.000 -1.505
17 51.00 1200.02 77 170 1.100 10000.000 0.000 -1.505
18 54.00 1200.02 88 200 1.100 10000.000 0.000 -1.505
19 57.00 1200.02 61 194 1.100 10000.000 0.000 -1.505
20 60.00 1200.02 75 195 1.100 10000.000 0.000 -1.505
21 63.00 1200.02 78 163 1.100 10000.000 0.000 -1.505
22 66.00 1200.02 77 156 1.100 10000.000 0.000 -1.505
23 69.00 1200.02 70 167 1.100 10000.000 0.000 -1.505
24 72.00 1200.02 77 161 1.100 10000.000 0.000 -1.505
25 75.00 1200.02 71 98 1.100 10000.000 0.000 -1.505
26 78.00 1200.02 96 115 1.100 10000.000 0.000 -1.505
27 81.00 1200.02 75 112 1.100 10000.000 0.000 -1.505
28 84.00 1200.02 79 109 1.100 10000.000 0.000 -1.505
29 87.00 1200.02 85 82 1.100 10000.000 0.000 -1.505
30 90.00 1200.02 59 92 1.100 10000.000 0.000 -1.505
31 93.00 1200.02 81 96 1.100 10000.000 0.000 -1.505
32 96.00 1200.02 82 87 1.100 10000.000 0.000 -1.505
33 99.00 1200.02 73 85 1.100 10000.000 0.000 -1.505
34 102.00 1200.02 61 88 1.100 10000.000 0.000 -1.505
35 105.00 1200.02 75 76 1.100 10000.000 0.000 -1.505
36 108.00 1200.02 65 87 1.100 10000.000 0.000 -1.505
37 111.00 1200.02 65 107 1.100 10000.000 0.000 -1.505
38 114.00 1200.02 85 107 1.100 10000.000 0.000 -1.505
39 117.00 1200.02 61 119 1.100 10000.000 0.000 -1.505
40 120.00 1200.02 67 133 1.100 10000.000 0.000 -1.505
41 123.00 1200.02 71 143 1.100 10000.000 0.000 -1.505
42 126.00 1200.02 62 139 1.100 10000.000 0.000 -1.505
43 129.00 1200.02 75 184 1.100 10000.000 0.000 -1.505
44 132.00 1200.02 86 214 1.100 10000.000 0.000 -1.505
45 135.00 1200.02 54 198 1.100 10000.000 0.000 -1.505
46 138.00 1200.02 66 253 1.100 10000.000 0.000 -1.505
47 141.00 1200.02 70 240 1.100 10000.000 0.000 -1.505
48 144.00 1200.02 83 240 1.100 10000.000 0.000 -1.505
49 147.00 1200.02 78 267 1.100 10000.000 0.000 -1.505
50 150.00 1200.02 82 241 1.100 10000.000 0.000 -1.505
51 153.00 1200.02 78 222 1.100 10000.000 0.000 -1.505
52 156.00 1200.02 64 197 1.100 10000.000 0.000 -1.505
53 159.00 1200.02 87 220 1.100 10000.000 0.000 -1.505
54 162.00 1200.02 57 208 1.100 10000.000 0.000 -1.505
55 165.00 1200.02 83 166 1.100 10000.000 0.000 -1.505
56 168.00 1200.02 86 149 1.100 10000.000 0.000 -1.505
57 171.00 1200.02 87 131 1.100 10000.000 0.000 -1.505
58 174.00 1200.02 61 137 1.100 10000.000 0.000 -1.505
59 177.00 1200.02 101 105 1.100 10000.000 0.000 -1.505
60 180.00 1200.02 93 72 1.100 10000.000 0.000 -1.505
61 183.00 1200.02 80 78 1.100 10000.000 0.000 -1.505
62 186.00 1200.02 96 101 1.100 10000.000 0.000 -1.505
63 189.00 1200.02 70 93 1.100 10000.000 0.000 -1.505
64 192.00 1200.02 95 86 1.100 10000.000 0.000 -1.505
65 195.00 1200.02 66 82 1.100 10000.000 0.000 -1.505
66 198.00 1200.02 76 97 1.100 10000.000 0.000 -1.505
67 201.00 1200.02 67 93 1.100 10000.000 0.000 -1.505
68 204.00 1200.02 75 72 1.100 10000.000 0.000 -1.505
69 207.00 1200.02 64 82 1.100 10000.000 0.000 -1.505
70 210.00 1200.02 75 95 1.100 10000.000 0.000 -1.505
71 213.00 1200.02 79 120 1.100 10000.000 0.000 -1.505
72 216.00 1200.02 66 102 1.100 10000.000 0.000 -1.505
73 219.00 1200.02 63 116 1.100 10000.000 0.000 -1.505
74 222.00 1200.02 81 155 1.100 10000.000 0.000 -1.505
75 225.00 1200.02 78 168 1.100 10000.000 0.000 -1.505
76 228.00 1200.02 77 168 1.100 10000.000 0.000 -1.505
77 231.00 1200.02 74 201 1.100 10000.000 0.000 -1.505
78 234.00 1200.02 78 204 1.100 10000.000 0.000 -1.505
79 237.00 1200.02 78 201 1.100 10000.000 0.000 -1.505
80 240.00 1200.02 83 253 1.100 10000.000 0.000 -1.505
81 243.00 1200.02 76 260 1.100 10000.000 0.000 -1.505
82 246.00 1200.02 68 226 1.100 10000.000 0.000 -1.505
83 249.00 1200.02 78 238 1.100 10000.000 0.000 -1.505
84 252.00 1200.02 67 243 1.100 10000.000 0.000 -1.505
85 255.00 1200.02 63 234 1.100 10000.000 0.000 -1.505
86 258.00 1200.02 71 187 1.100 10000.000 0.000 -1.505
87 261.00 1200.02 93 203 1.100 10000.000 0.000 -1.505
88 264.00 1200.02 75 179 1.100 10000.000 0.000 -1.505
89 267.00 1200.02 78 160 1.100 10000.000 0.000 -1.505
90 270.00 1200.02 77 152 1.100 10000.000 0.000 -1.505
91 273.00 1200.02 74 142 1.100 10000.000 0.000 -1.505
92 276.00 1200.02 64 106 1.100 10000.000 0.000 -1.505
93 279.00 1200.02 77 98 1.100 10000.000 0.000 -1.505
94 282.00 1200.02 76 99 1.100 10000.000 0.000 -1.505
95 285.00 1200.02 94 90 1.100 10000.000 0.000 -1.505
96 288.00 1200.02 95 85 1.100 10000.000 0.000 -1.505
97 291.00 1200.02 85 75 1.100 10000.000 0.000 -1.505
98 294.00 1200.02 64 95 1.100 10000.000 0.000 -1.505
99 297.00 1200.02 58 87 1.100 10000.000 0.000 -1.505
100 300.00 1200.02 76 75 1.100 10000.000 0.000 -1.505
101 303.00 1200.02 79 90 1.100 10000.000 0.000 -1.505
102 306.00 1200.02 86 99 1.100 10000.000 0.000 -1.505
103 309.00 1200.02 72 75 1.100 10000.000 0.000 -1.505
104 312.00 1200.02 81 109 1.100 10000.000 0.000 -1.505
105 315.00 1200.02 68 107 1.100 10000.000 0.000 -1.505
106 318.00 1200.02 81 139 1.100 10000.000 0.000 -1.505
107 321.00 1200.02 78 138 1.100 10000.000 0.000 -1.505
108 324.00 1200.02 77 152 1.100 10000.000 0.000 -1.505
109 327.00 1200.02 78 203 1.100 10000.000 0.000 -1.505
110 330.00 1200.02 86 215 1.100 10000.000 0.000 -1.505
111 333.00 1200.02 77 189 1.100 10000.000 0.000 -1.505
112 336.00 1200.02 81 232 1.100 10000.000 0.000 -1.505
113 339.00 1200.02 84 231 1.100 10000.000 0.000 -1.505
114 342.00 1200.02 78 235 1.100 10000.000 0.000 -1.505
115 345.00 1200.02 84 217 1.100 10000.000 0.000 -1.505
116 348.00 1200.02 75 249 1.100 10000.000 0.000 -1.505
117 351.00 1200.02 49 232 1.100 10000.000 0.000 -1.505
118 354.00 1200.02 74 232 1.100 10000.000 0.000 -1.505
119 357.00 1200.02 107 199 1.100 10000.000 0.000 -1.505
120 360.00 1200.02 79 200 1.100 10000.000 0.000 -1.505
121 363.00 1200.02 85 195 1.100 10000.000 0.000 -1.505
122 366.00 1200.02 73 172 1.100 10000.000 0.000 -1.505
123 369.00 1200.02 93 141 1.100 10000.000 0.000 -1.505
124 372.00 1200.02 71 137 1.100 10000.000 0.000 -1.505
125 375.00 1200.02 80 126 1.100 10000.000 0.000 -1.505
126 378.00 1200.02 74 108 1.100 10000.000 0.000 -1.505
127 381.00 1200.02 88 83 1.100 10000.000 0.000 -1.505
128 384.00 1200.02 78 93 1.100 10000.000 0.000 -1.505
129 387.00 1200.02 80 94 1.100 10000.000 0.000 -1.505
130 390.00 1200.02 75 80 1.100 10000.000 0.000 -1.505
131 393.00 1200.02 71 73 1.100 10000.000 0.000 -1.505
132 396.00 1200.02 67 78 1.100 10000.000 0.000 -1.505
133 399.00 1200.02 88 81 1.100 10000.000 0.000 -1.505
134 402.00 1200.02 71 112 1.100 10000.000 0.000 -1.505
135 405.00 1200.02 77 78 1.100 10000.000 0.000 -1.505
136 408.00 1200.02 94 110 1.100 10000.000 0.000 -1.505
137 411.00 1200.02 70 108 1.100 10000.000 0.000 -1.505
138 414.00 1200.02 98 105 1.100 10000.000 0.000 -1.505
139 417.00 1200.02 81 98 1.100 10000.000 0.000 -1.505
140 420.00 1200.02 83 139 1.100 10000.000 0.000 -1.505
141 423.00 1200.02 66 157 1.100 10000.000 0.000 -1.505
142 426.00 1200.02 62 163 1.100 10000.000 0.000 -1.505
143 429.00 1200.02 76 169 1.100 10000.000 0.000 -1.505
144 432.00 1200.02 82 203 1.100 10000.000 0.000 -1.505
