# BinNR microsec tot-time (s)  O-Beam AUX Ampl(V) f(Hz) phase(deg) chi(pos)
0 0.00 1200.02 132 319 1.100 10000.000 0.000 -0.681
1 3.00 1200.02 226 631 1.100 10000.000 0.000 -0.681
2 6.00 1200.02 241 689 1.100 10000.000 0.000 -0.681
3 9.00 1200.02 193 593 1.100 10000.000 0.000 -0.681
4 12.00 1200.02 224 639 1.100 10000.000 0.000 -0.681
5 15.00 1200.02 198 609 1.100 10000.000 0.000 -0.681
6 18.00 1200.02 204 676 1.100 10000.000 0.000 -0.681
7 21.00 1200.02 196 586 1.100 10000.000 0.000 -0.681
8 24.00 1200.02 167 619 1.100 10000.000 0.000 -0.681
9 27.00 1200.02 181 553 1.100 10000.000 0.000 -0.681
10 30.00 1200.02 194 580 1.100 10000.000 0.000 -0.681
11 33.00 1200.02 166 596 1.100 10000.000 0.000 -0.681
12 36.00 1200.02 206 636 1.100 10000.000 0.000 -0.681
13 39.00 1200.02 173 634 1.100 10000.000 0.000 -0.681
14 42.00 1200.02 201 609 1.100 10000.000 0.000 -0.681
15 45.00 1200.02 194 622 1.100 10000.000 0.000 -0.681
16 48.00 1200.02 171 668 1.100 10000.000 0.000 -0.681
17 51.00 1200.02 196 642 1.100 10000.000 0.000 -0.681
18 54.00 1200.02 201 672 1.100 10000.000 0.000 -0.681
19 57.00 1200.02 203 591 1.100 10000.000 0.000 -0.681
20 60.00 1200.02 205 633 1.100 10000.000 0.000 -0.681
21 63.00 1200.02 239 603 1.100 10000.000 0.000 -0.681
22 66.00 1200.02 217 649 1.100 10000.000 0.000 -0.681
23 69.00 1200.02 221 581 1.100 10000.000 0.000 -0.681
24 72.00 1200.02 240 654 1.100 10000.000 0.000 -0.681
25 75.00 1200.02 222 621 1.100 10000.000 0.000 -0.681
26 78.00 1200.02 246 614 1.100 10000.000 0.000 -0.681
27 81.00 1200.02 202 607 1.100 10000.000 0.000 -0.681
28 84.00 1200.02 218 557 1.100 10000.000 0.000 -0.681
29 87.00 1200.02 243 598 1.100 10000.000 0.000 -0.681
30 90.00 1200.02 266 554 1.100 10000.000 0.000 -0.681
31 93.00 1200.02 228 551 1.100 10000.000 0.000 -0.681
32 96.00 1200.02 222 572 1.100 10000.000 0.000 -0.681
33 99.00 1200.02 231 535 1.100 10000.000 0.000 -0.681
34 102.00 1200.02 206 574 1.100 10000.000 0.000 -0.681
35 105.00 1200.02 220 578 1.100 10000.000 0.000 -0.681
36 108.00 1200.02 224 562 1.100 10000.000 0.000 -0.681
37 111.00 1200.02 214 569 1.100 10000.000 0.000 -0.681
38 114.00 1200.02 203 577 1.100 10000.000 0.000 -0.681
39 117.00 1200.02 191 628 1.100 10000.000 0.000 -0.681
40 120.00 1200.02 216 600 1.100 10000.000 0.000 -0.681
41 123.00 1200.02 155 635 1.100 10000.000 0.000 -0.681
42 126.00 1200.02 183 627 1.100 10000.000 0.000 -0.681
43 129.00 1200.02 199 645 1.100 10000.000 0.000 -0.681
44 132.00 1200.02 185 647 1.100 10000.000 0.000 -0.681
45 135.00 1200.02 185 662 1.100 10000.000 0.000 -0.681
46 138.00 1200.02 184 630 1.100 10000.000 0.000 -0.681
47 141.00 1200.02 203 607 1.100 10000.000 0.000 -0.681
48 144.00 1200.02 214 643 1.100 10000.000 0.000 -0.681
49 147.00 1200.02 215 650 1.100 10000.000 0.000 -0.681
50 150.00 1200.02 200 618 1.100 10000.000 0.000 -0.681
51 153.00 1200.02 207 632 1.100 10000.000 0.000 -0.681
52 156.00 1200.02 222 634 1.100 10000.000 0.000 -0.681
53 159.00 1200.02 195 639 1.100 10000.000 0.000 -0.681
54 162.00 1200.02 211 588 1.100 10000.000 0.000 -0.681
55 165.00 1200.02 233 645 1.100 10000.000 0.000 -0.681
56 168.00 1200.02 229 608 1.100 10000.000 0.000 -0.681
57 171.00 1200.02 203 627 1.100 10000.000 0.000 -0.681
58 174.00 1200.02 218 647 1.100 10000.000 0.000 -0.681
59 177.00 1200.02 220 592 1.100 10000.000 0.000 -0.681
60 180.00 1200.02 238 643 1.100 10000.000 0.000 -0.681
61 183.00 1200.02 232 588 1.100 10000.000 0.000 -0.681
62 186.00 1200.02 250 593 1.100 10000.000 0.000 -0.681
63 189.00 1200.02 224 557 1.100 10000.000 0.000 -0.681
64 192.00 1200.02 225 545 1.100 10000.000 0.000 -0.681
65 195.00 1200.02 245 512 1.100 10000.000 0.000 -0.681
66 198.00 1200.02 249 520 1.100 10000.000 0.000 -0.681
67 201.00 1200.02 230 560 1.100 10000.000 0.000 -0.681
68 204.00 1200.02 263 593 1.100 10000.000 0.000 -0.681
69 207.00 1200.02 213 542 1.100 10000.000 0.000 -0.681
70 210.00 1200.02 195 574 1.100 10000.000 0.000 -0.681
71 213.00 1200.02 194 589 1.100 10000.000 0.000 -0.681
72 216.00 1200.02 187 631 1.100 10000.000 0.000 -0.681
73 219.00 1200.02 208 580 1.100 10000.000 0.000 -0.681
74 222.00 1200.02 189 601 1.100 10000.000 0.000 -0.681
75 225.00 1200.02 177 620 1.100 10000.000 0.000 -0.681
76 228.00 1200.02 204 659 1.100 10000.000 0.000 -0.681
77 231.00 1200.02 198 667 1.100 10000.000 0.000 -0.681
78 234.00 1200.02 187 641 1.100 10000.000 0.000 -0.681
79 237.00 1200.02 170 594 1.100 10000.000 0.000 -0.681
80 240.00 1200.02 188 631 1.100 10000.000 0.000 -0.681
81 243.00 1200.02 198 580 1.100 10000.000 0.000 -0.681
82 246.00 1200.02 200 649 1.100 10000.000 0.000 -0.681
83 249.00 1200.02 183 636 1.100 10000.000 0.000 -0.681
84 252.00 1200.02 188 619 1.100 10000.000 0.000 -0.681
85 255.00 1200.02 216 624 1.100 10000.000 0.000 -0.681
86 258.00 1200.02 200 682 1.100 10000.000 0.000 -0.681
87 261.00 1200.02 206 628 1.100 10000.000 0.000 -0.681
88 264.00 1200.02 211 688 1.100 10000.000 0.000 -0.681
89 267.00 1200.02 237 628 1.100 10000.000 0.000 -0.681
90 270.00 1200.02 242 622 1.100 10000.000 0.000 -0.681
91 273.00 1200.02 220 613 1.100 10000.000 0.000 -0.681
92 276.00 1200.02 228 676 1.100 10000.000 0.000 -0.681
93 279.00 1200.02 248 596 1.100 10000.000 0.000 -0.681
94 282.00 1200.02 215 604 1.100 10000.000 0.000 -0.681
95 285.00 1200.02 236 569 1.100 10000.000 0.000 -0.681
96 288.00 1200.02 242 576 1.100 10000.000 0.000 -0.681
97 291.00 1200.02 200 531 1.100 10000.000 0.000 -0.681
98 294.00 1200.02 235 547 1.100 10000.000 0.000 -0.681
99 297.00 1200.02 216 571 1.100 10000.000 0.000 -0.681
100 300.00 1200.02 214 617 1.100 10000.000 0.000 -0.681
101 303.00 1200.02 210 603 1.100 10000.000 0.000 -0.681
102 306.00 1200.02 219 579 1.100 10000.000 0.000 -0.681
103 309.00 1200.02 247 605 1.100 10000.000 0.000 -0.681
104 312.00 1200.02 225 591 1.100 10000.000 0.000 -0.681
105 315.00 1200.02 243 592 1.100 10000.000 0.000 -0.681
106 318.00 1200.02 242 661 1.100 10000.000 0.000 -0.681
107 321.00 1200.02 224 629 1.100 10000.000 0.000 -0.681
108 324.00 1200.02 242 635 1.100 10000.000 0.000 -0.681
109 327.00 1200.02 232 629 1.100 10000.000 0.000 -0.681
110 330.00 1200.02 239 635 1.100 10000.000 0.000 -0.681
111 333.00 1200.02 197 605 1.100 10000.000 0.000 -0.681
112 336.00 1200.02 237 620 1.100 10000.000 0.000 -0.681
113 339.00 1200.02 217 614 1.100 10000.000 0.000 -0.681
114 342.00 1200.02 232 577 1.100 10000.000 0.000 -0.681
115 345.00 1200.02 223 629 1.100 10000.000 0.000 -0.681
116 348.00 1200.02 217 656 1.100 10000.000 0.000 -0.681
117 351.00 1200.02 197 616 1.100 10000.000 0.000 -0.681
118 354.00 1200.02 201 612 1.100 10000.000 0.000 -0.681
119 357.00 1200.02 186 596 1.100 10000.000 0.000 -0.681
120 360.00 1200.02 179 621 1.100 10000.000 0.000 -0.681
121 363.00 1200.02 160 621 1.100 10000.000 0.000 -0.681
122 366.00 1200.02 180 654 1.100 10000.000 0.000 -0.681
123 369.00 1200.02 193 609 1.100 10000.000 0.000 -0.681
124 372.00 1200.02 173 604 1.100 10000.000 0.000 -0.681
125 375.00 1200.02 209 642 1.100 10000.000 0.000 -0.681
126 378.00 1200.02 179 569 1.100 10000.000 0.000 -0.681
127 381.00 1200.02 233 615 1.100 10000.000 0.000 -0.681
128 384.00 1200.02 185 532 1.100 10000.000 0.000 -0.681
129 387.00 1200.02 184 580 1.100 10000.000 0.000 -0.681
130 390.00 1200.02 228 609 1.100 10000.000 0.000 -0.681
131 393.00 1200.02 246 548 1.100 10000.000 0.000 -0.681
132 396.00 1200.02 235 543 1.100 10000.000 0.000 -0.681
133 399.00 1200.02 218 570 1.100 10000.000 0.000 -0.681
134 402.00 1200.02 228 559 1.100 10000.000 0.000 -0.681
135 405.00 1200.02 254 532 1.100 10000.000 0.000 -0.681
136 408.00 1200.02 236 582 1.100 10000.000 0.000 -0.681
137 411.00 1200.02 228 600 1.100 10000.000 0.000 -0.681
138 414.00 1200.02 262 644 1.100 10000.000 0.000 -0.681
139 417.00 1200.02 246 632 1.100 10000.000 0.000 -0.681
140 420.00 1200.02 239 612 1.100 10000.000 0.000 -0.681
141 423.00 1200.02 250 616 1.100 10000.000 0.000 -0.681
142 426.00 1200.02 277 672 1.100 10000.000 0.000 -0.681
143 429.00 1200.02 228 622 1.100 10000.000 0.000 -0.681
144 432.00 1200.02 212 639 1.100 10000.000 0.000 -0.681
