# BinNR microsec tot-time (s)  O-Beam AUX Ampl(V) f(Hz) phase(deg) chi(pos)
0 0.00 1200.00 165 309 2.980 10000.000 0.000 10000.000
1 3.00 1200.00 322 696 2.980 10000.000 0.000 10000.000
2 6.00 1200.00 338 716 2.980 10000.000 0.000 10000.000
3 9.00 1200.00 324 669 2.980 10000.000 0.000 10000.000
4 12.00 1200.00 347 703 2.980 10000.000 0.000 10000.000
5 15.00 1200.00 338 636 2.980 10000.000 0.000 10000.000
6 18.00 1200.00 308 640 2.980 10000.000 0.000 10000.000
7 21.00 1200.00 317 604 2.980 10000.000 0.000 10000.000
8 24.00 1200.00 338 617 2.980 10000.000 0.000 10000.000
9 27.00 1200.00 293 614 2.980 10000.000 0.000 10000.000
10 30.00 1200.00 308 632 2.980 10000.000 0.000 10000.000
11 33.00 1200.00 341 608 2.980 10000.000 0.000 10000.000
12 36.00 1200.00 292 659 2.980 10000.000 0.000 10000.000
13 39.00 1200.00 298 657 2.980 10000.000 0.000 10000.000
14 42.00 1200.00 304 685 2.980 10000.000 0.000 10000.000
15 45.00 1200.00 297 684 2.980 10000.000 0.000 10000.000
16 48.00 1200.00 296 776 2.980 10000.000 0.000 10000.000
17 51.00 1200.00 296 702 2.980 10000.000 0.000 10000.000
18 54.00 1200.00 279 747 2.980 10000.000 0.000 10000.000
19 57.00 1200.00 310 748 2.980 10000.000 0.000 10000.000
20 60.00 1200.00 311 803 2.980 10000.000 0.000 10000.000
21 63.00 1200.00 315 782 2.980 10000.000 0.000 10000.000
22 66.00 1200.00 311 769 2.980 10000.000 0.000 10000.000
23 69.00 1200.00 332 769 2.980 10000.000 0.000 10000.000
24 72.00 1200.00 308 805 2.980 10000.000 0.000 10000.000
25 75.00 1200.00 329 735 2.980 10000.000 0.000 10000.000
26 78.00 1200.00 369 740 2.980 10000.000 0.000 10000.000
27 81.00 1200.00 321 698 2.980 10000.000 0.000 10000.000
28 84.00 1200.00 354 718 2.980 10000.000 0.000 10000.000
29 87.00 1200.00 349 730 2.980 10000.000 0.000 10000.000
30 90.00 1200.00 337 653 2.980 10000.000 0.000 10000.000
31 93.00 1200.00 377 654 2.980 10000.000 0.000 10000.000
32 96.00 1200.00 322 660 2.980 10000.000 0.000 10000.000
33 99.00 1200.00 318 596 2.980 10000.000 0.000 10000.000
34 102.00 1200.00 329 583 2.980 10000.000 0.000 10000.000
35 105.00 1200.00 345 588 2.980 10000.000 0.000 10000.000
36 108.00 1200.00 328 561 2.980 10000.000 0.000 10000.000
37 111.00 1200.00 344 531 2.980 10000.000 0.000 10000.000
38 114.00 1200.00 382 541 2.980 10000.000 0.000 10000.000
39 117.00 1200.00 350 566 2.980 10000.000 0.000 10000.000
40 120.00 1200.00 331 500 2.980 10000.000 0.000 10000.000
41 123.00 1200.00 321 603 2.980 10000.000 0.000 10000.000
42 126.00 1200.00 351 568 2.980 10000.000 0.000 10000.000
43 129.00 1200.00 294 601 2.980 10000.000 0.000 10000.000
44 132.00 1200.00 305 607 2.980 10000.000 0.000 10000.000
45 135.00 1200.00 308 667 2.980 10000.000 0.000 10000.000
46 138.00 1200.00 314 635 2.980 10000.000 0.000 10000.000
47 141.00 1200.00 328 696 2.980 10000.000 0.000 10000.000
48 144.00 1200.00 319 728 2.980 10000.000 0.000 10000.000
49 147.00 1200.00 283 717 2.980 10000.000 0.000 10000.000
50 150.00 1200.00 272 746 2.980 10000.000 0.000 10000.000
51 153.00 1200.00 278 749 2.980 10000.000 0.000 10000.000
52 156.00 1200.00 304 794 2.980 10000.000 0.000 10000.000
53 159.00 1200.00 278 789 2.980 10000.000 0.000 10000.000
54 162.00 1200.00 294 754 2.980 10000.000 0.000 10000.000
55 165.00 1200.00 290 750 2.980 10000.000 0.000 10000.000
56 168.00 1200.00 295 779 2.980 10000.000 0.000 10000.000
57 171.00 1200.00 318 765 2.980 10000.000 0.000 10000.000
58 174.00 1200.00 335 825 2.980 10000.000 0.000 10000.000
59 177.00 1200.00 337 761 2.980 10000.000 0.000 10000.000
60 180.00 1200.00 316 724 2.980 10000.000 0.000 10000.000
61 183.00 1200.00 348 764 2.980 10000.000 0.000 10000.000
62 186.00 1200.00 354 688 2.980 10000.000 0.000 10000.000
63 189.00 1200.00 328 647 2.980 10000.000 0.000 10000.000
64 192.00 1200.00 332 684 2.980 10000.000 0.000 10000.000
65 195.00 1200.00 361 649 2.980 10000.000 0.000 10000.000
66 198.00 1200.00 370 609 2.980 10000.000 0.000 10000.000
67 201.00 1200.00 336 600 2.980 10000.000 0.000 10000.000
68 204.00 1200.00 350 561 2.980 10000.000 0.000 10000.000
69 207.00 1200.00 351 578 2.980 10000.000 0.000 10000.000
70 210.00 1200.00 322 579 2.980 10000.000 0.000 10000.000
71 213.00 1200.00 360 526 2.980 10000.000 0.000 10000.000
72 216.00 1200.00 380 527 2.980 10000.000 0.000 10000.000
73 219.00 1200.00 331 602 2.980 10000.000 0.000 10000.000
74 222.00 1200.00 331 554 2.980 10000.000 0.000 10000.000
75 225.00 1200.00 338 618 2.980 10000.000 0.000 10000.000
76 228.00 1200.00 316 596 2.980 10000.000 0.000 10000.000
77 231.00 1200.00 340 596 2.980 10000.000 0.000 10000.000
78 234.00 1200.00 296 589 2.980 10000.000 0.000 10000.000
79 237.00 1200.00 350 652 2.980 10000.000 0.000 10000.000
80 240.00 1200.00 302 703 2.980 10000.000 0.000 10000.000
81 243.00 1200.00 330 697 2.980 10000.000 0.000 10000.000
82 246.00 1200.00 307 736 2.980 10000.000 0.000 10000.000
83 249.00 1200.00 313 711 2.980 10000.000 0.000 10000.000
84 252.00 1200.00 344 710 2.980 10000.000 0.000 10000.000
85 255.00 1200.00 302 724 2.980 10000.000 0.000 10000.000
86 258.00 1200.00 320 813 2.980 10000.000 0.000 10000.000
87 261.00 1200.00 332 753 2.980 10000.000 0.000 10000.000
88 264.00 1200.00 339 828 2.980 10000.000 0.000 10000.000
89 267.00 1200.00 316 740 2.980 10000.000 0.000 10000.000
90 270.00 1200.00 296 789 2.980 10000.000 0.000 10000.000
91 273.00 1200.00 332 772 2.980 10000.000 0.000 10000.000
92 276.00 1200.00 330 793 2.980 10000.000 0.000 10000.000
93 279.00 1200.00 320 768 2.980 10000.000 0.000 10000.000
94 282.00 1200.00 330 787 2.980 10000.000 0.000 10000.000
95 285.00 1200.00 333 698 2.980 10000.000 0.000 10000.000
96 288.00 1200.00 311 711 2.980 10000.000 0.000 10000.000
97 291.00 1200.00 314 705 2.980 10000.000 0.000 10000.000
98 294.00 1200.00 291 661 2.980 10000.000 0.000 10000.000
99 297.00 1200.00 320 677 2.980 10000.000 0.000 10000.000
100 300.00 1200.00 313 612 2.980 10000.000 0.000 10000.000
101 303.00 1200.00 307 597 2.980 10000.000 0.000 10000.000
102 306.00 1200.00 302 574 2.980 10000.000 0.000 10000.000
103 309.00 1200.00 306 551 2.980 10000.000 0.000 10000.000
104 312.00 1200.00 315 546 2.980 10000.000 0.000 10000.000
105 315.00 1200.00 313 517 2.980 10000.000 0.000 10000.000
106 318.00 1200.00 322 575 2.980 10000.000 0.000 10000.000
107 321.00 1200.00 306 553 2.980 10000.000 0.000 10000.000
108 324.00 1200.00 364 594 2.980 10000.000 0.000 10000.000
109 327.00 1200.00 335 624 2.980 10000.000 0.000 10000.000
110 330.00 1200.00 361 613 2.980 10000.000 0.000 10000.000
111 333.00 1200.00 328 648 2.980 10000.000 0.000 10000.000
112 336.00 1200.00 333 681 2.980 10000.000 0.000 10000.000
113 339.00 1200.00 303 650 2.980 10000.000 0.000 10000.000
114 342.00 1200.00 350 705 2.980 10000.000 0.000 10000.000
115 345.00 1200.00 336 740 2.980 10000.000 0.000 10000.000
116 348.00 1200.00 328 722 2.980 10000.000 0.000 10000.000
117 351.00 1200.00 317 705 2.980 10000.000 0.000 10000.000
118 354.00 1200.00 360 782 2.980 10000.000 0.000 10000.000
119 357.00 1200.00 291 770 2.980 10000.000 0.000 10000.000
120 360.00 1200.00 311 773 2.980 10000.000 0.000 10000.000
121 363.00 1200.00 331 812 2.980 10000.000 0.000 10000.000
122 366.00 1200.00 340 786 2.980 10000.000 0.000 10000.000
123 369.00 1200.00 312 759 2.980 10000.000 0.000 10000.000
124 372.00 1200.00 301 720 2.980 10000.000 0.000 10000.000
125 375.00 1200.00 310 773 2.980 10000.000 0.000 10000.000
126 378.00 1200.00 317 769 2.980 10000.000 0.000 10000.000
127 381.00 1200.00 283 794 2.980 10000.000 0.000 10000.000
128 384.00 1200.00 286 748 2.980 10000.000 0.000 10000.000
129 387.00 1200.00 285 714 2.980 10000.000 0.000 10000.000
130 390.00 1200.00 312 716 2.980 10000.000 0.000 10000.000
131 393.00 1200.00 309 666 2.980 10000.000 0.000 10000.000
132 396.00 1200.00 339 659 2.980 10000.000 0.000 10000.000
133 399.00 1200.00 288 611 2.980 10000.000 0.000 10000.000
134 402.00 1200.00 330 571 2.980 10000.000 0.000 10000.000
135 405.00 1200.00 331 600 2.980 10000.000 0.000 10000.000
136 408.00 1200.00 342 574 2.980 10000.000 0.000 10000.000
137 411.00 1200.00 328 550 2.980 10000.000 0.000 10000.000
138 414.00 1200.00 343 571 2.980 10000.000 0.000 10000.000
139 417.00 1200.00 364 577 2.980 10000.000 0.000 10000.000
140 420.00 1200.00 340 701 2.980 10000.000 0.000 10000.000
141 423.00 1200.00 361 614 2.980 10000.000 0.000 10000.000
