# BinNR microsec tot-time (s)  O-Beam AUX Ampl(V) f(Hz) phase(deg) chi(pos)
0 0.00 1200.01 162 387 2.980 10000.000 0.000 10000.000
1 3.00 1200.01 328 754 2.980 10000.000 0.000 10000.000
2 6.00 1200.01 315 781 2.980 10000.000 0.000 10000.000
3 9.00 1200.01 352 707 2.980 10000.000 0.000 10000.000
4 12.00 1200.01 361 748 2.980 10000.000 0.000 10000.000
5 15.00 1200.01 368 656 2.980 10000.000 0.000 10000.000
6 18.00 1200.01 372 649 2.980 10000.000 0.000 10000.000
7 21.00 1200.01 334 648 2.980 10000.000 0.000 10000.000
8 24.00 1200.01 353 629 2.980 10000.000 0.000 10000.000
9 27.00 1200.01 350 647 2.980 10000.000 0.000 10000.000
10 30.00 1200.01 368 623 2.980 10000.000 0.000 10000.000
11 33.00 1200.01 285 657 2.980 10000.000 0.000 10000.000
12 36.00 1200.01 341 729 2.980 10000.000 0.000 10000.000
13 39.00 1200.01 293 724 2.980 10000.000 0.000 10000.000
14 42.00 1200.01 313 746 2.980 10000.000 0.000 10000.000
15 45.00 1200.01 303 798 2.980 10000.000 0.000 10000.000
16 48.00 1200.01 310 795 2.980 10000.000 0.000 10000.000
17 51.00 1200.01 280 843 2.980 10000.000 0.000 10000.000
18 54.00 1200.01 296 825 2.980 10000.000 0.000 10000.000
19 57.00 1200.01 284 801 2.980 10000.000 0.000 10000.000
20 60.00 1200.01 335 853 2.980 10000.000 0.000 10000.000
21 63.00 1200.01 323 772 2.980 10000.000 0.000 10000.000
22 66.00 1200.01 314 791 2.980 10000.000 0.000 10000.000
23 69.00 1200.01 320 812 2.980 10000.000 0.000 10000.000
24 72.00 1200.01 310 854 2.980 10000.000 0.000 10000.000
25 75.00 1200.01 346 831 2.980 10000.000 0.000 10000.000
26 78.00 1200.01 361 838 2.980 10000.000 0.000 10000.000
27 81.00 1200.01 345 816 2.980 10000.000 0.000 10000.000
28 84.00 1200.01 309 784 2.980 10000.000 0.000 10000.000
29 87.00 1200.01 336 742 2.980 10000.000 0.000 10000.000
30 90.00 1200.01 324 757 2.980 10000.000 0.000 10000.000
31 93.00 1200.01 339 752 2.980 10000.000 0.000 10000.000
32 96.00 1200.01 337 724 2.980 10000.000 0.000 10000.000
33 99.00 1200.01 351 647 2.980 10000.000 0.000 10000.000
34 102.00 1200.01 335 661 2.980 10000.000 0.000 10000.000
35 105.00 1200.01 318 575 2.980 10000.000 0.000 10000.000
36 108.00 1200.01 341 588 2.980 10000.000 0.000 10000.000
37 111.00 1200.01 335 575 2.980 10000.000 0.000 10000.000
38 114.00 1200.01 341 531 2.980 10000.000 0.000 10000.000
39 117.00 1200.01 355 519 2.980 10000.000 0.000 10000.000
40 120.00 1200.01 340 580 2.980 10000.000 0.000 10000.000
41 123.00 1200.01 358 536 2.980 10000.000 0.000 10000.000
42 126.00 1200.01 319 616 2.980 10000.000 0.000 10000.000
43 129.00 1200.01 351 630 2.980 10000.000 0.000 10000.000
44 132.00 1200.01 311 665 2.980 10000.000 0.000 10000.000
45 135.00 1200.01 317 690 2.980 10000.000 0.000 10000.000
46 138.00 1200.01 333 722 2.980 10000.000 0.000 10000.000
47 141.00 1200.01 292 770 2.980 10000.000 0.000 10000.000
48 144.00 1200.01 288 840 2.980 10000.000 0.000 10000.000
49 147.00 1200.01 290 771 2.980 10000.000 0.000 10000.000
50 150.00 1200.01 282 857 2.980 10000.000 0.000 10000.000
51 153.00 1200.01 292 756 2.980 10000.000 0.000 10000.000
52 156.00 1200.01 324 782 2.980 10000.000 0.000 10000.000
53 159.00 1200.01 303 791 2.980 10000.000 0.000 10000.000
54 162.00 1200.01 318 840 2.980 10000.000 0.000 10000.000
55 165.00 1200.01 323 865 2.980 10000.000 0.000 10000.000
56 168.00 1200.01 320 833 2.980 10000.000 0.000 10000.000
57 171.00 1200.01 352 857 2.980 10000.000 0.000 10000.000
58 174.00 1200.01 374 836 2.980 10000.000 0.000 10000.000
59 177.00 1200.01 296 813 2.980 10000.000 0.000 10000.000
60 180.00 1200.01 350 834 2.980 10000.000 0.000 10000.000
61 183.00 1200.01 335 740 2.980 10000.000 0.000 10000.000
62 186.00 1200.01 365 803 2.980 10000.000 0.000 10000.000
63 189.00 1200.01 345 751 2.980 10000.000 0.000 10000.000
64 192.00 1200.01 339 732 2.980 10000.000 0.000 10000.000
65 195.00 1200.01 317 723 2.980 10000.000 0.000 10000.000
66 198.00 1200.01 333 681 2.980 10000.000 0.000 10000.000
67 201.00 1200.01 370 650 2.980 10000.000 0.000 10000.000
68 204.00 1200.01 351 582 2.980 10000.000 0.000 10000.000
69 207.00 1200.01 343 575 2.980 10000.000 0.000 10000.000
70 210.00 1200.01 345 572 2.980 10000.000 0.000 10000.000
71 213.00 1200.01 332 563 2.980 10000.000 0.000 10000.000
72 216.00 1200.01 358 536 2.980 10000.000 0.000 10000.000
73 219.00 1200.01 364 536 2.980 10000.000 0.000 10000.000
74 222.00 1200.01 331 639 2.980 10000.000 0.000 10000.000
75 225.00 1200.01 333 598 2.980 10000.000 0.000 10000.000
76 228.00 1200.01 336 635 2.980 10000.000 0.000 10000.000
77 231.00 1200.01 320 672 2.980 10000.000 0.000 10000.000
78 234.00 1200.01 345 665 2.980 10000.000 0.000 10000.000
79 237.00 1200.01 337 713 2.980 10000.000 0.000 10000.000
80 240.00 1200.01 308 739 2.980 10000.000 0.000 10000.000
81 243.00 1200.01 321 755 2.980 10000.000 0.000 10000.000
82 246.00 1200.01 342 819 2.980 10000.000 0.000 10000.000
83 249.00 1200.01 334 840 2.980 10000.000 0.000 10000.000
84 252.00 1200.01 321 788 2.980 10000.000 0.000 10000.000
85 255.00 1200.01 319 776 2.980 10000.000 0.000 10000.000
86 258.00 1200.01 337 819 2.980 10000.000 0.000 10000.000
87 261.00 1200.01 360 830 2.980 10000.000 0.000 10000.000
88 264.00 1200.01 366 851 2.980 10000.000 0.000 10000.000
89 267.00 1200.01 328 795 2.980 10000.000 0.000 10000.000
90 270.00 1200.01 344 826 2.980 10000.000 0.000 10000.000
91 273.00 1200.01 332 822 2.980 10000.000 0.000 10000.000
92 276.00 1200.01 322 826 2.980 10000.000 0.000 10000.000
93 279.00 1200.01 313 831 2.980 10000.000 0.000 10000.000
94 282.00 1200.01 358 815 2.980 10000.000 0.000 10000.000
95 285.00 1200.01 324 789 2.980 10000.000 0.000 10000.000
96 288.00 1200.01 301 820 2.980 10000.000 0.000 10000.000
97 291.00 1200.01 332 692 2.980 10000.000 0.000 10000.000
98 294.00 1200.01 304 763 2.980 10000.000 0.000 10000.000
99 297.00 1200.01 333 666 2.980 10000.000 0.000 10000.000
100 300.00 1200.01 323 628 2.980 10000.000 0.000 10000.000
101 303.00 1200.01 314 619 2.980 10000.000 0.000 10000.000
102 306.00 1200.01 354 578 2.980 10000.000 0.000 10000.000
103 309.00 1200.01 307 610 2.980 10000.000 0.000 10000.000
104 312.00 1200.01 281 564 2.980 10000.000 0.000 10000.000
105 315.00 1200.01 330 569 2.980 10000.000 0.000 10000.000
106 318.00 1200.01 322 573 2.980 10000.000 0.000 10000.000
107 321.00 1200.01 308 647 2.980 10000.000 0.000 10000.000
108 324.00 1200.01 366 524 2.980 10000.000 0.000 10000.000
109 327.00 1200.01 333 623 2.980 10000.000 0.000 10000.000
110 330.00 1200.01 335 619 2.980 10000.000 0.000 10000.000
111 333.00 1200.01 344 692 2.980 10000.000 0.000 10000.000
112 336.00 1200.01 330 733 2.980 10000.000 0.000 10000.000
113 339.00 1200.01 341 714 2.980 10000.000 0.000 10000.000
114 342.00 1200.01 349 799 2.980 10000.000 0.000 10000.000
115 345.00 1200.01 373 804 2.980 10000.000 0.000 10000.000
116 348.00 1200.01 323 820 2.980 10000.000 0.000 10000.000
117 351.00 1200.01 344 822 2.980 10000.000 0.000 10000.000
118 354.00 1200.01 334 836 2.980 10000.000 0.000 10000.000
119 357.00 1200.01 355 837 2.980 10000.000 0.000 10000.000
120 360.00 1200.01 331 860 2.980 10000.000 0.000 10000.000
121 363.00 1200.01 307 798 2.980 10000.000 0.000 10000.000
122 366.00 1200.01 301 849 2.980 10000.000 0.000 10000.000
123 369.00 1200.01 339 824 2.980 10000.000 0.000 10000.000
124 372.00 1200.01 308 741 2.980 10000.000 0.000 10000.000
125 375.00 1200.01 305 811 2.980 10000.000 0.000 10000.000
126 378.00 1200.01 285 871 2.980 10000.000 0.000 10000.000
127 381.00 1200.01 305 796 2.980 10000.000 0.000 10000.000
128 384.00 1200.01 310 800 2.980 10000.000 0.000 10000.000
129 387.00 1200.01 265 723 2.980 10000.000 0.000 10000.000
130 390.00 1200.01 288 740 2.980 10000.000 0.000 10000.000
131 393.00 1200.01 316 693 2.980 10000.000 0.000 10000.000
132 396.00 1200.01 323 675 2.980 10000.000 0.000 10000.000
133 399.00 1200.01 277 586 2.980 10000.000 0.000 10000.000
134 402.00 1200.01 331 579 2.980 10000.000 0.000 10000.000
135 405.00 1200.01 343 604 2.980 10000.000 0.000 10000.000
136 408.00 1200.01 311 582 2.980 10000.000 0.000 10000.000
137 411.00 1200.01 328 645 2.980 10000.000 0.000 10000.000
138 414.00 1200.01 336 675 2.980 10000.000 0.000 10000.000
139 417.00 1200.01 336 666 2.980 10000.000 0.000 10000.000
140 420.00 1200.01 333 696 2.980 10000.000 0.000 10000.000
141 423.00 1200.01 337 664 2.980 10000.000 0.000 10000.000
