# BinNR microsec tot-time (s)  O-Beam AUX Ampl(V) f(Hz) phase(deg) chi(pos)
0 0.00 1200.01 195 448 2.980 10000.000 0.000 0.000
1 3.00 1200.01 359 861 2.980 10000.000 0.000 0.000
2 6.00 1200.01 336 885 2.980 10000.000 0.000 0.000
3 9.00 1200.01 366 798 2.980 10000.000 0.000 0.000
4 12.00 1200.01 366 814 2.980 10000.000 0.000 0.000
5 15.00 1200.01 343 823 2.980 10000.000 0.000 0.000
6 18.00 1200.01 382 779 2.980 10000.000 0.000 0.000
7 21.00 1200.01 347 775 2.980 10000.000 0.000 0.000
8 24.00 1200.01 347 778 2.980 10000.000 0.000 0.000
9 27.00 1200.01 335 775 2.980 10000.000 0.000 0.000
10 30.00 1200.01 343 723 2.980 10000.000 0.000 0.000
11 33.00 1200.01 300 755 2.980 10000.000 0.000 0.000
12 36.00 1200.01 299 810 2.980 10000.000 0.000 0.000
13 39.00 1200.01 347 798 2.980 10000.000 0.000 0.000
14 42.00 1200.01 349 889 2.980 10000.000 0.000 0.000
15 45.00 1200.01 342 853 2.980 10000.000 0.000 0.000
16 48.00 1200.01 321 896 2.980 10000.000 0.000 0.000
17 51.00 1200.01 344 825 2.980 10000.000 0.000 0.000
18 54.00 1200.01 321 914 2.980 10000.000 0.000 0.000
19 57.00 1200.01 307 869 2.980 10000.000 0.000 0.000
20 60.00 1200.01 351 992 2.980 10000.000 0.000 0.000
21 63.00 1200.01 316 863 2.980 10000.000 0.000 0.000
22 66.00 1200.01 305 933 2.980 10000.000 0.000 0.000
23 69.00 1200.01 337 909 2.980 10000.000 0.000 0.000
24 72.00 1200.01 329 906 2.980 10000.000 0.000 0.000
25 75.00 1200.01 350 854 2.980 10000.000 0.000 0.000
26 78.00 1200.01 343 884 2.980 10000.000 0.000 0.000
27 81.00 1200.01 340 859 2.980 10000.000 0.000 0.000
28 84.00 1200.01 333 905 2.980 10000.000 0.000 0.000
29 87.00 1200.01 354 852 2.980 10000.000 0.000 0.000
30 90.00 1200.01 376 849 2.980 10000.000 0.000 0.000
31 93.00 1200.01 359 808 2.980 10000.000 0.000 0.000
32 96.00 1200.01 376 812 2.980 10000.000 0.000 0.000
33 99.00 1200.01 338 803 2.980 10000.000 0.000 0.000
34 102.00 1200.01 354 725 2.980 10000.000 0.000 0.000
35 105.00 1200.01 328 760 2.980 10000.000 0.000 0.000
36 108.00 1200.01 385 740 2.980 10000.000 0.000 0.000
37 111.00 1200.01 327 729 2.980 10000.000 0.000 0.000
38 114.00 1200.01 323 781 2.980 10000.000 0.000 0.000
39 117.00 1200.01 341 710 2.980 10000.000 0.000 0.000
40 120.00 1200.01 319 752 2.980 10000.000 0.000 0.000
41 123.00 1200.01 302 729 2.980 10000.000 0.000 0.000
42 126.00 1200.01 326 728 2.980 10000.000 0.000 0.000
43 129.00 1200.01 343 791 2.980 10000.000 0.000 0.000
44 132.00 1200.01 333 797 2.980 10000.000 0.000 0.000
45 135.00 1200.01 348 857 2.980 10000.000 0.000 0.000
46 138.00 1200.01 328 814 2.980 10000.000 0.000 0.000
47 141.00 1200.01 329 850 2.980 10000.000 0.000 0.000
48 144.00 1200.01 347 901 2.980 10000.000 0.000 0.000
49 147.00 1200.01 340 882 2.980 10000.000 0.000 0.000
50 150.00 1200.01 308 917 2.980 10000.000 0.000 0.000
51 153.00 1200.01 301 875 2.980 10000.000 0.000 0.000
52 156.00 1200.01 312 939 2.980 10000.000 0.000 0.000
53 159.00 1200.01 313 924 2.980 10000.000 0.000 0.000
54 162.00 1200.01 353 861 2.980 10000.000 0.000 0.000
55 165.00 1200.01 311 956 2.980 10000.000 0.000 0.000
56 168.00 1200.01 336 912 2.980 10000.000 0.000 0.000
57 171.00 1200.01 318 916 2.980 10000.000 0.000 0.000
58 174.00 1200.01 343 889 2.980 10000.000 0.000 0.000
59 177.00 1200.01 329 932 2.980 10000.000 0.000 0.000
60 180.00 1200.01 336 901 2.980 10000.000 0.000 0.000
61 183.00 1200.01 343 920 2.980 10000.000 0.000 0.000
62 186.00 1200.01 373 894 2.980 10000.000 0.000 0.000
63 189.00 1200.01 327 852 2.980 10000.000 0.000 0.000
64 192.00 1200.01 337 878 2.980 10000.000 0.000 0.000
65 195.00 1200.01 306 792 2.980 10000.000 0.000 0.000
66 198.00 1200.01 309 855 2.980 10000.000 0.000 0.000
67 201.00 1200.01 333 755 2.980 10000.000 0.000 0.000
68 204.00 1200.01 353 772 2.980 10000.000 0.000 0.000
69 207.00 1200.01 333 728 2.980 10000.000 0.000 0.000
70 210.00 1200.01 339 730 2.980 10000.000 0.000 0.000
71 213.00 1200.01 317 739 2.980 10000.000 0.000 0.000
72 216.00 1200.01 359 764 2.980 10000.000 0.000 0.000
73 219.00 1200.01 315 772 2.980 10000.000 0.000 0.000
74 222.00 1200.01 357 780 2.980 10000.000 0.000 0.000
75 225.00 1200.01 322 730 2.980 10000.000 0.000 0.000
76 228.00 1200.01 322 775 2.980 10000.000 0.000 0.000
77 231.00 1200.01 340 789 2.980 10000.000 0.000 0.000
78 234.00 1200.01 348 831 2.980 10000.000 0.000 0.000
79 237.00 1200.01 349 817 2.980 10000.000 0.000 0.000
80 240.00 1200.01 291 840 2.980 10000.000 0.000 0.000
81 243.00 1200.01 328 884 2.980 10000.000 0.000 0.000
82 246.00 1200.01 348 898 2.980 10000.000 0.000 0.000
83 249.00 1200.01 330 889 2.980 10000.000 0.000 0.000
84 252.00 1200.01 320 915 2.980 10000.000 0.000 0.000
85 255.00 1200.01 342 948 2.980 10000.000 0.000 0.000
86 258.00 1200.01 362 942 2.980 10000.000 0.000 0.000
87 261.00 1200.01 324 937 2.980 10000.000 0.000 0.000
88 264.00 1200.01 348 922 2.980 10000.000 0.000 0.000
89 267.00 1200.01 335 877 2.980 10000.000 0.000 0.000
90 270.00 1200.01 328 869 2.980 10000.000 0.000 0.000
91 273.00 1200.01 358 888 2.980 10000.000 0.000 0.000
92 276.00 1200.01 321 903 2.980 10000.000 0.000 0.000
93 279.00 1200.01 318 918 2.980 10000.000 0.000 0.000
94 282.00 1200.01 342 881 2.980 10000.000 0.000 0.000
95 285.00 1200.01 334 845 2.980 10000.000 0.000 0.000
96 288.00 1200.01 338 901 2.980 10000.000 0.000 0.000
97 291.00 1200.01 327 859 2.980 10000.000 0.000 0.000
98 294.00 1200.01 327 877 2.980 10000.000 0.000 0.000
99 297.00 1200.01 367 806 2.980 10000.000 0.000 0.000
100 300.00 1200.01 377 839 2.980 10000.000 0.000 0.000
101 303.00 1200.01 343 721 2.980 10000.000 0.000 0.000
102 306.00 1200.01 324 756 2.980 10000.000 0.000 0.000
103 309.00 1200.01 348 786 2.980 10000.000 0.000 0.000
104 312.00 1200.01 324 756 2.980 10000.000 0.000 0.000
105 315.00 1200.01 369 723 2.980 10000.000 0.000 0.000
106 318.00 1200.01 359 773 2.980 10000.000 0.000 0.000
107 321.00 1200.01 305 744 2.980 10000.000 0.000 0.000
108 324.00 1200.01 325 741 2.980 10000.000 0.000 0.000
109 327.00 1200.01 337 754 2.980 10000.000 0.000 0.000
110 330.00 1200.01 341 785 2.980 10000.000 0.000 0.000
111 333.00 1200.01 365 804 2.980 10000.000 0.000 0.000
112 336.00 1200.01 341 844 2.980 10000.000 0.000 0.000
113 339.00 1200.01 338 837 2.980 10000.000 0.000 0.000
114 342.00 1200.01 328 856 2.980 10000.000 0.000 0.000
115 345.00 1200.01 316 867 2.980 10000.000 0.000 0.000
116 348.00 1200.01 359 881 2.980 10000.000 0.000 0.000
117 351.00 1200.01 384 892 2.980 10000.000 0.000 0.000
118 354.00 1200.01 326 900 2.980 10000.000 0.000 0.000
119 357.00 1200.01 351 925 2.980 10000.000 0.000 0.000
120 360.00 1200.01 345 926 2.980 10000.000 0.000 0.000
121 363.00 1200.01 327 934 2.980 10000.000 0.000 0.000
122 366.00 1200.01 357 975 2.980 10000.000 0.000 0.000
123 369.00 1200.01 299 917 2.980 10000.000 0.000 0.000
124 372.00 1200.01 343 908 2.980 10000.000 0.000 0.000
125 375.00 1200.01 322 887 2.980 10000.000 0.000 0.000
126 378.00 1200.01 331 879 2.980 10000.000 0.000 0.000
127 381.00 1200.01 285 871 2.980 10000.000 0.000 0.000
128 384.00 1200.01 339 876 2.980 10000.000 0.000 0.000
129 387.00 1200.01 348 859 2.980 10000.000 0.000 0.000
130 390.00 1200.01 339 864 2.980 10000.000 0.000 0.000
131 393.00 1200.01 326 803 2.980 10000.000 0.000 0.000
132 396.00 1200.01 311 789 2.980 10000.000 0.000 0.000
133 399.00 1200.01 350 754 2.980 10000.000 0.000 0.000
134 402.00 1200.01 307 793 2.980 10000.000 0.000 0.000
135 405.00 1200.01 334 738 2.980 10000.000 0.000 0.000
136 408.00 1200.01 346 774 2.980 10000.000 0.000 0.000
137 411.00 1200.01 304 777 2.980 10000.000 0.000 0.000
138 414.00 1200.01 365 744 2.980 10000.000 0.000 0.000
139 417.00 1200.01 376 721 2.980 10000.000 0.000 0.000
140 420.00 1200.01 371 784 2.980 10000.000 0.000 0.000
141 423.00 1200.01 298 792 2.980 10000.000 0.000 0.000
