# BinNR microsec tot-time (s)  O-Beam AUX Ampl(V) f(Hz) phase(deg) chi(pos)
0 0.00 1200.00 153 258 1.800 10000.000 0.000 -0.143
1 3.00 1200.00 292 528 1.800 10000.000 0.000 -0.143
2 6.00 1200.00 263 542 1.800 10000.000 0.000 -0.143
3 9.00 1200.00 255 475 1.800 10000.000 0.000 -0.143
4 12.00 1200.00 290 468 1.800 10000.000 0.000 -0.143
5 15.00 1200.00 259 438 1.800 10000.000 0.000 -0.143
6 18.00 1200.00 248 393 1.800 10000.000 0.000 -0.143
7 21.00 1200.00 263 437 1.800 10000.000 0.000 -0.143
8 24.00 1200.00 252 453 1.800 10000.000 0.000 -0.143
9 27.00 1200.00 249 485 1.800 10000.000 0.000 -0.143
10 30.00 1200.00 250 531 1.800 10000.000 0.000 -0.143
11 33.00 1200.00 242 526 1.800 10000.000 0.000 -0.143
12 36.00 1200.00 217 550 1.800 10000.000 0.000 -0.143
13 39.00 1200.00 243 627 1.800 10000.000 0.000 -0.143
14 42.00 1200.00 217 631 1.800 10000.000 0.000 -0.143
15 45.00 1200.00 215 647 1.800 10000.000 0.000 -0.143
16 48.00 1200.00 248 676 1.800 10000.000 0.000 -0.143
17 51.00 1200.00 222 615 1.800 10000.000 0.000 -0.143
18 54.00 1200.00 226 633 1.800 10000.000 0.000 -0.143
19 57.00 1200.00 251 651 1.800 10000.000 0.000 -0.143
20 60.00 1200.00 223 710 1.800 10000.000 0.000 -0.143
21 63.00 1200.00 235 678 1.800 10000.000 0.000 -0.143
22 66.00 1200.00 243 659 1.800 10000.000 0.000 -0.143
23 69.00 1200.00 284 580 1.800 10000.000 0.000 -0.143
24 72.00 1200.00 271 664 1.800 10000.000 0.000 -0.143
25 75.00 1200.00 299 614 1.800 10000.000 0.000 -0.143
26 78.00 1200.00 276 603 1.800 10000.000 0.000 -0.143
27 81.00 1200.00 280 539 1.800 10000.000 0.000 -0.143
28 84.00 1200.00 294 540 1.800 10000.000 0.000 -0.143
29 87.00 1200.00 298 480 1.800 10000.000 0.000 -0.143
30 90.00 1200.00 282 511 1.800 10000.000 0.000 -0.143
31 93.00 1200.00 293 453 1.800 10000.000 0.000 -0.143
32 96.00 1200.00 316 435 1.800 10000.000 0.000 -0.143
33 99.00 1200.00 310 456 1.800 10000.000 0.000 -0.143
34 102.00 1200.00 305 440 1.800 10000.000 0.000 -0.143
35 105.00 1200.00 284 463 1.800 10000.000 0.000 -0.143
36 108.00 1200.00 289 436 1.800 10000.000 0.000 -0.143
37 111.00 1200.00 277 453 1.800 10000.000 0.000 -0.143
38 114.00 1200.00 259 446 1.800 10000.000 0.000 -0.143
39 117.00 1200.00 237 458 1.800 10000.000 0.000 -0.143
40 120.00 1200.00 270 456 1.800 10000.000 0.000 -0.143
41 123.00 1200.00 256 467 1.800 10000.000 0.000 -0.143
42 126.00 1200.00 255 448 1.800 10000.000 0.000 -0.143
43 129.00 1200.00 254 533 1.800 10000.000 0.000 -0.143
44 132.00 1200.00 228 509 1.800 10000.000 0.000 -0.143
45 135.00 1200.00 236 531 1.800 10000.000 0.000 -0.143
46 138.00 1200.00 238 626 1.800 10000.000 0.000 -0.143
47 141.00 1200.00 251 650 1.800 10000.000 0.000 -0.143
48 144.00 1200.00 243 639 1.800 10000.000 0.000 -0.143
49 147.00 1200.00 227 641 1.800 10000.000 0.000 -0.143
50 150.00 1200.00 224 670 1.800 10000.000 0.000 -0.143
51 153.00 1200.00 234 687 1.800 10000.000 0.000 -0.143
52 156.00 1200.00 233 709 1.800 10000.000 0.000 -0.143
53 159.00 1200.00 246 648 1.800 10000.000 0.000 -0.143
54 162.00 1200.00 238 651 1.800 10000.000 0.000 -0.143
55 165.00 1200.00 236 639 1.800 10000.000 0.000 -0.143
56 168.00 1200.00 256 649 1.800 10000.000 0.000 -0.143
57 171.00 1200.00 290 605 1.800 10000.000 0.000 -0.143
58 174.00 1200.00 271 627 1.800 10000.000 0.000 -0.143
59 177.00 1200.00 277 580 1.800 10000.000 0.000 -0.143
60 180.00 1200.00 295 559 1.800 10000.000 0.000 -0.143
61 183.00 1200.00 258 575 1.800 10000.000 0.000 -0.143
62 186.00 1200.00 302 524 1.800 10000.000 0.000 -0.143
63 189.00 1200.00 288 543 1.800 10000.000 0.000 -0.143
64 192.00 1200.00 314 487 1.800 10000.000 0.000 -0.143
65 195.00 1200.00 305 437 1.800 10000.000 0.000 -0.143
66 198.00 1200.00 307 453 1.800 10000.000 0.000 -0.143
67 201.00 1200.00 269 421 1.800 10000.000 0.000 -0.143
68 204.00 1200.00 281 386 1.800 10000.000 0.000 -0.143
69 207.00 1200.00 264 426 1.800 10000.000 0.000 -0.143
70 210.00 1200.00 268 441 1.800 10000.000 0.000 -0.143
71 213.00 1200.00 280 435 1.800 10000.000 0.000 -0.143
72 216.00 1200.00 255 474 1.800 10000.000 0.000 -0.143
73 219.00 1200.00 237 475 1.800 10000.000 0.000 -0.143
74 222.00 1200.00 263 480 1.800 10000.000 0.000 -0.143
75 225.00 1200.00 218 481 1.800 10000.000 0.000 -0.143
76 228.00 1200.00 224 524 1.800 10000.000 0.000 -0.143
77 231.00 1200.00 265 597 1.800 10000.000 0.000 -0.143
78 234.00 1200.00 242 546 1.800 10000.000 0.000 -0.143
79 237.00 1200.00 240 570 1.800 10000.000 0.000 -0.143
80 240.00 1200.00 222 613 1.800 10000.000 0.000 -0.143
81 243.00 1200.00 256 610 1.800 10000.000 0.000 -0.143
82 246.00 1200.00 251 629 1.800 10000.000 0.000 -0.143
83 249.00 1200.00 248 652 1.800 10000.000 0.000 -0.143
84 252.00 1200.00 250 654 1.800 10000.000 0.000 -0.143
85 255.00 1200.00 239 726 1.800 10000.000 0.000 -0.143
86 258.00 1200.00 281 714 1.800 10000.000 0.000 -0.143
87 261.00 1200.00 241 721 1.800 10000.000 0.000 -0.143
88 264.00 1200.00 267 649 1.800 10000.000 0.000 -0.143
89 267.00 1200.00 263 658 1.800 10000.000 0.000 -0.143
90 270.00 1200.00 282 637 1.800 10000.000 0.000 -0.143
91 273.00 1200.00 242 619 1.800 10000.000 0.000 -0.143
92 276.00 1200.00 234 567 1.800 10000.000 0.000 -0.143
93 279.00 1200.00 257 570 1.800 10000.000 0.000 -0.143
94 282.00 1200.00 264 551 1.800 10000.000 0.000 -0.143
95 285.00 1200.00 268 554 1.800 10000.000 0.000 -0.143
96 288.00 1200.00 227 477 1.800 10000.000 0.000 -0.143
97 291.00 1200.00 228 518 1.800 10000.000 0.000 -0.143
98 294.00 1200.00 249 452 1.800 10000.000 0.000 -0.143
99 297.00 1200.00 249 443 1.800 10000.000 0.000 -0.143
100 300.00 1200.00 223 367 1.800 10000.000 0.000 -0.143
101 303.00 1200.00 240 394 1.800 10000.000 0.000 -0.143
102 306.00 1200.00 269 485 1.800 10000.000 0.000 -0.143
103 309.00 1200.00 258 436 1.800 10000.000 0.000 -0.143
104 312.00 1200.00 273 411 1.800 10000.000 0.000 -0.143
105 315.00 1200.00 261 456 1.800 10000.000 0.000 -0.143
106 318.00 1200.00 274 470 1.800 10000.000 0.000 -0.143
107 321.00 1200.00 270 464 1.800 10000.000 0.000 -0.143
108 324.00 1200.00 290 507 1.800 10000.000 0.000 -0.143
109 327.00 1200.00 321 533 1.800 10000.000 0.000 -0.143
110 330.00 1200.00 308 516 1.800 10000.000 0.000 -0.143
111 333.00 1200.00 306 561 1.800 10000.000 0.000 -0.143
112 336.00 1200.00 294 571 1.800 10000.000 0.000 -0.143
113 339.00 1200.00 290 609 1.800 10000.000 0.000 -0.143
114 342.00 1200.00 284 634 1.800 10000.000 0.000 -0.143
115 345.00 1200.00 295 644 1.800 10000.000 0.000 -0.143
116 348.00 1200.00 293 685 1.800 10000.000 0.000 -0.143
117 351.00 1200.00 266 676 1.800 10000.000 0.000 -0.143
118 354.00 1200.00 262 646 1.800 10000.000 0.000 -0.143
119 357.00 1200.00 234 693 1.800 10000.000 0.000 -0.143
120 360.00 1200.00 253 681 1.800 10000.000 0.000 -0.143
121 363.00 1200.00 225 702 1.800 10000.000 0.000 -0.143
122 366.00 1200.00 257 639 1.800 10000.000 0.000 -0.143
123 369.00 1200.00 235 686 1.800 10000.000 0.000 -0.143
124 372.00 1200.00 213 601 1.800 10000.000 0.000 -0.143
125 375.00 1200.00 226 630 1.800 10000.000 0.000 -0.143
126 378.00 1200.00 228 579 1.800 10000.000 0.000 -0.143
127 381.00 1200.00 236 562 1.800 10000.000 0.000 -0.143
128 384.00 1200.00 213 539 1.800 10000.000 0.000 -0.143
129 387.00 1200.00 246 513 1.800 10000.000 0.000 -0.143
130 390.00 1200.00 234 510 1.800 10000.000 0.000 -0.143
131 393.00 1200.00 237 472 1.800 10000.000 0.000 -0.143
132 396.00 1200.00 262 469 1.800 10000.000 0.000 -0.143
133 399.00 1200.00 251 417 1.800 10000.000 0.000 -0.143
134 402.00 1200.00 291 477 1.800 10000.000 0.000 -0.143
135 405.00 1200.00 261 441 1.800 10000.000 0.000 -0.143
136 408.00 1200.00 273 461 1.800 10000.000 0.000 -0.143
137 411.00 1200.00 247 472 1.800 10000.000 0.000 -0.143
138 414.00 1200.00 300 532 1.800 10000.000 0.000 -0.143
139 417.00 1200.00 278 543 1.800 10000.000 0.000 -0.143
140 420.00 1200.00 263 561 1.800 10000.000 0.000 -0.143
141 423.00 1200.00 271 574 1.800 10000.000 0.000 -0.143
