# BinNR microsec tot-time (s)  O-Beam AUX Ampl(V) f(Hz) phase(deg) chi(pos)
0 0.00 1200.01 140 286 2.600 10000.000 0.000 -0.132
1 3.00 1200.01 293 574 2.600 10000.000 0.000 -0.132
2 6.00 1200.01 321 573 2.600 10000.000 0.000 -0.132
3 9.00 1200.01 270 526 2.600 10000.000 0.000 -0.132
4 12.00 1200.01 287 466 2.600 10000.000 0.000 -0.132
5 15.00 1200.01 252 443 2.600 10000.000 0.000 -0.132
6 18.00 1200.01 317 401 2.600 10000.000 0.000 -0.132
7 21.00 1200.01 285 439 2.600 10000.000 0.000 -0.132
8 24.00 1200.01 258 416 2.600 10000.000 0.000 -0.132
9 27.00 1200.01 254 512 2.600 10000.000 0.000 -0.132
10 30.00 1200.01 250 538 2.600 10000.000 0.000 -0.132
11 33.00 1200.01 247 578 2.600 10000.000 0.000 -0.132
12 36.00 1200.01 245 662 2.600 10000.000 0.000 -0.132
13 39.00 1200.01 229 650 2.600 10000.000 0.000 -0.132
14 42.00 1200.01 229 751 2.600 10000.000 0.000 -0.132
15 45.00 1200.01 232 723 2.600 10000.000 0.000 -0.132
16 48.00 1200.01 232 753 2.600 10000.000 0.000 -0.132
17 51.00 1200.01 221 779 2.600 10000.000 0.000 -0.132
18 54.00 1200.01 231 765 2.600 10000.000 0.000 -0.132
19 57.00 1200.01 205 750 2.600 10000.000 0.000 -0.132
20 60.00 1200.01 225 765 2.600 10000.000 0.000 -0.132
21 63.00 1200.01 230 736 2.600 10000.000 0.000 -0.132
22 66.00 1200.01 274 748 2.600 10000.000 0.000 -0.132
23 69.00 1200.01 249 703 2.600 10000.000 0.000 -0.132
24 72.00 1200.01 272 708 2.600 10000.000 0.000 -0.132
25 75.00 1200.01 290 671 2.600 10000.000 0.000 -0.132
26 78.00 1200.01 305 629 2.600 10000.000 0.000 -0.132
27 81.00 1200.01 295 605 2.600 10000.000 0.000 -0.132
28 84.00 1200.01 266 582 2.600 10000.000 0.000 -0.132
29 87.00 1200.01 291 537 2.600 10000.000 0.000 -0.132
30 90.00 1200.01 308 523 2.600 10000.000 0.000 -0.132
31 93.00 1200.01 318 455 2.600 10000.000 0.000 -0.132
32 96.00 1200.01 313 477 2.600 10000.000 0.000 -0.132
33 99.00 1200.01 312 388 2.600 10000.000 0.000 -0.132
34 102.00 1200.01 317 379 2.600 10000.000 0.000 -0.132
35 105.00 1200.01 323 416 2.600 10000.000 0.000 -0.132
36 108.00 1200.01 333 409 2.600 10000.000 0.000 -0.132
37 111.00 1200.01 296 417 2.600 10000.000 0.000 -0.132
38 114.00 1200.01 283 429 2.600 10000.000 0.000 -0.132
39 117.00 1200.01 280 459 2.600 10000.000 0.000 -0.132
40 120.00 1200.01 272 447 2.600 10000.000 0.000 -0.132
41 123.00 1200.01 254 453 2.600 10000.000 0.000 -0.132
42 126.00 1200.01 246 518 2.600 10000.000 0.000 -0.132
43 129.00 1200.01 249 558 2.600 10000.000 0.000 -0.132
44 132.00 1200.01 238 559 2.600 10000.000 0.000 -0.132
45 135.00 1200.01 208 595 2.600 10000.000 0.000 -0.132
46 138.00 1200.01 245 649 2.600 10000.000 0.000 -0.132
47 141.00 1200.01 207 664 2.600 10000.000 0.000 -0.132
48 144.00 1200.01 207 672 2.600 10000.000 0.000 -0.132
49 147.00 1200.01 205 682 2.600 10000.000 0.000 -0.132
50 150.00 1200.01 203 754 2.600 10000.000 0.000 -0.132
51 153.00 1200.01 215 786 2.600 10000.000 0.000 -0.132
52 156.00 1200.01 229 792 2.600 10000.000 0.000 -0.132
53 159.00 1200.01 214 769 2.600 10000.000 0.000 -0.132
54 162.00 1200.01 251 772 2.600 10000.000 0.000 -0.132
55 165.00 1200.01 261 753 2.600 10000.000 0.000 -0.132
56 168.00 1200.01 269 729 2.600 10000.000 0.000 -0.132
57 171.00 1200.01 273 700 2.600 10000.000 0.000 -0.132
58 174.00 1200.01 300 693 2.600 10000.000 0.000 -0.132
59 177.00 1200.01 291 668 2.600 10000.000 0.000 -0.132
60 180.00 1200.01 290 616 2.600 10000.000 0.000 -0.132
61 183.00 1200.01 292 577 2.600 10000.000 0.000 -0.132
62 186.00 1200.01 312 551 2.600 10000.000 0.000 -0.132
63 189.00 1200.01 304 511 2.600 10000.000 0.000 -0.132
64 192.00 1200.01 304 492 2.600 10000.000 0.000 -0.132
65 195.00 1200.01 312 492 2.600 10000.000 0.000 -0.132
66 198.00 1200.01 294 445 2.600 10000.000 0.000 -0.132
67 201.00 1200.01 312 386 2.600 10000.000 0.000 -0.132
68 204.00 1200.01 307 442 2.600 10000.000 0.000 -0.132
69 207.00 1200.01 287 417 2.600 10000.000 0.000 -0.132
70 210.00 1200.01 300 423 2.600 10000.000 0.000 -0.132
71 213.00 1200.01 287 365 2.600 10000.000 0.000 -0.132
72 216.00 1200.01 277 453 2.600 10000.000 0.000 -0.132
73 219.00 1200.01 284 462 2.600 10000.000 0.000 -0.132
74 222.00 1200.01 278 471 2.600 10000.000 0.000 -0.132
75 225.00 1200.01 262 521 2.600 10000.000 0.000 -0.132
76 228.00 1200.01 258 596 2.600 10000.000 0.000 -0.132
77 231.00 1200.01 245 544 2.600 10000.000 0.000 -0.132
78 234.00 1200.01 241 623 2.600 10000.000 0.000 -0.132
79 237.00 1200.01 233 620 2.600 10000.000 0.000 -0.132
80 240.00 1200.01 208 709 2.600 10000.000 0.000 -0.132
81 243.00 1200.01 252 693 2.600 10000.000 0.000 -0.132
82 246.00 1200.01 237 736 2.600 10000.000 0.000 -0.132
83 249.00 1200.01 249 752 2.600 10000.000 0.000 -0.132
84 252.00 1200.01 251 793 2.600 10000.000 0.000 -0.132
85 255.00 1200.01 265 732 2.600 10000.000 0.000 -0.132
86 258.00 1200.01 294 769 2.600 10000.000 0.000 -0.132
87 261.00 1200.01 261 746 2.600 10000.000 0.000 -0.132
88 264.00 1200.01 287 774 2.600 10000.000 0.000 -0.132
89 267.00 1200.01 259 735 2.600 10000.000 0.000 -0.132
90 270.00 1200.01 274 681 2.600 10000.000 0.000 -0.132
91 273.00 1200.01 271 634 2.600 10000.000 0.000 -0.132
92 276.00 1200.01 247 649 2.600 10000.000 0.000 -0.132
93 279.00 1200.01 250 627 2.600 10000.000 0.000 -0.132
94 282.00 1200.01 279 609 2.600 10000.000 0.000 -0.132
95 285.00 1200.01 228 606 2.600 10000.000 0.000 -0.132
96 288.00 1200.01 231 536 2.600 10000.000 0.000 -0.132
97 291.00 1200.01 229 475 2.600 10000.000 0.000 -0.132
98 294.00 1200.01 266 459 2.600 10000.000 0.000 -0.132
99 297.00 1200.01 238 445 2.600 10000.000 0.000 -0.132
100 300.00 1200.01 271 444 2.600 10000.000 0.000 -0.132
101 303.00 1200.01 285 423 2.600 10000.000 0.000 -0.132
102 306.00 1200.01 251 418 2.600 10000.000 0.000 -0.132
103 309.00 1200.01 293 405 2.600 10000.000 0.000 -0.132
104 312.00 1200.01 293 419 2.600 10000.000 0.000 -0.132
105 315.00 1200.01 297 439 2.600 10000.000 0.000 -0.132
106 318.00 1200.01 287 425 2.600 10000.000 0.000 -0.132
107 321.00 1200.01 300 458 2.600 10000.000 0.000 -0.132
108 324.00 1200.01 323 493 2.600 10000.000 0.000 -0.132
109 327.00 1200.01 296 469 2.600 10000.000 0.000 -0.132
110 330.00 1200.01 320 558 2.600 10000.000 0.000 -0.132
111 333.00 1200.01 329 585 2.600 10000.000 0.000 -0.132
112 336.00 1200.01 302 681 2.600 10000.000 0.000 -0.132
113 339.00 1200.01 302 657 2.600 10000.000 0.000 -0.132
114 342.00 1200.01 306 664 2.600 10000.000 0.000 -0.132
115 345.00 1200.01 305 713 2.600 10000.000 0.000 -0.132
116 348.00 1200.01 285 725 2.600 10000.000 0.000 -0.132
117 351.00 1200.01 260 745 2.600 10000.000 0.000 -0.132
118 354.00 1200.01 266 781 2.600 10000.000 0.000 -0.132
119 357.00 1200.01 255 693 2.600 10000.000 0.000 -0.132
120 360.00 1200.01 271 753 2.600 10000.000 0.000 -0.132
121 363.00 1200.01 244 750 2.600 10000.000 0.000 -0.132
122 366.00 1200.01 261 773 2.600 10000.000 0.000 -0.132
123 369.00 1200.01 256 738 2.600 10000.000 0.000 -0.132
124 372.00 1200.01 231 698 2.600 10000.000 0.000 -0.132
125 375.00 1200.01 212 672 2.600 10000.000 0.000 -0.132
126 378.00 1200.01 221 627 2.600 10000.000 0.000 -0.132
127 381.00 1200.01 221 577 2.600 10000.000 0.000 -0.132
128 384.00 1200.01 220 588 2.600 10000.000 0.000 -0.132
129 387.00 1200.01 209 538 2.600 10000.000 0.000 -0.132
130 390.00 1200.01 234 497 2.600 10000.000 0.000 -0.132
131 393.00 1200.01 234 440 2.600 10000.000 0.000 -0.132
132 396.00 1200.01 270 453 2.600 10000.000 0.000 -0.132
133 399.00 1200.01 227 425 2.600 10000.000 0.000 -0.132
134 402.00 1200.01 307 416 2.600 10000.000 0.000 -0.132
135 405.00 1200.01 292 404 2.600 10000.000 0.000 -0.132
136 408.00 1200.01 293 459 2.600 10000.000 0.000 -0.132
137 411.00 1200.01 285 478 2.600 10000.000 0.000 -0.132
138 414.00 1200.01 274 540 2.600 10000.000 0.000 -0.132
139 417.00 1200.01 260 590 2.600 10000.000 0.000 -0.132
140 420.00 1200.01 309 695 2.600 10000.000 0.000 -0.132
141 423.00 1200.01 296 715 2.600 10000.000 0.000 -0.132
