# BinNR microsec tot-time (s)  O-Beam AUX Ampl(V) f(Hz) phase(deg) chi(pos)
0 0.00 1200.01 114 469 3.000 10000.000 0.000 3.296
1 3.00 1200.01 242 965 3.000 10000.000 0.000 3.296
2 6.00 1200.01 286 1003 3.000 10000.000 0.000 3.296
3 9.00 1200.01 286 985 3.000 10000.000 0.000 3.296
4 12.00 1200.01 272 1071 3.000 10000.000 0.000 3.296
5 15.00 1200.01 305 1000 3.000 10000.000 0.000 3.296
6 18.00 1200.01 324 1027 3.000 10000.000 0.000 3.296
7 21.00 1200.01 293 995 3.000 10000.000 0.000 3.296
8 24.00 1200.01 321 986 3.000 10000.000 0.000 3.296
9 27.00 1200.01 324 982 3.000 10000.000 0.000 3.296
10 30.00 1200.01 326 957 3.000 10000.000 0.000 3.296
11 33.00 1200.01 317 945 3.000 10000.000 0.000 3.296
12 36.00 1200.01 344 945 3.000 10000.000 0.000 3.296
13 39.00 1200.01 308 906 3.000 10000.000 0.000 3.296
14 42.00 1200.01 370 886 3.000 10000.000 0.000 3.296
15 45.00 1200.01 329 877 3.000 10000.000 0.000 3.296
16 48.00 1200.01 338 833 3.000 10000.000 0.000 3.296
17 51.00 1200.01 328 809 3.000 10000.000 0.000 3.296
18 54.00 1200.01 311 857 3.000 10000.000 0.000 3.296
19 57.00 1200.01 345 829 3.000 10000.000 0.000 3.296
20 60.00 1200.01 351 901 3.000 10000.000 0.000 3.296
21 63.00 1200.01 352 800 3.000 10000.000 0.000 3.296
22 66.00 1200.01 331 814 3.000 10000.000 0.000 3.296
23 69.00 1200.01 317 847 3.000 10000.000 0.000 3.296
24 72.00 1200.01 310 847 3.000 10000.000 0.000 3.296
25 75.00 1200.01 348 885 3.000 10000.000 0.000 3.296
26 78.00 1200.01 272 918 3.000 10000.000 0.000 3.296
27 81.00 1200.01 269 949 3.000 10000.000 0.000 3.296
28 84.00 1200.01 280 954 3.000 10000.000 0.000 3.296
29 87.00 1200.01 268 1024 3.000 10000.000 0.000 3.296
30 90.00 1200.01 292 948 3.000 10000.000 0.000 3.296
31 93.00 1200.01 281 1040 3.000 10000.000 0.000 3.296
32 96.00 1200.01 272 994 3.000 10000.000 0.000 3.296
33 99.00 1200.01 255 965 3.000 10000.000 0.000 3.296
34 102.00 1200.01 276 999 3.000 10000.000 0.000 3.296
35 105.00 1200.01 289 1022 3.000 10000.000 0.000 3.296
36 108.00 1200.01 311 948 3.000 10000.000 0.000 3.296
37 111.00 1200.01 284 991 3.000 10000.000 0.000 3.296
38 114.00 1200.01 286 967 3.000 10000.000 0.000 3.296
39 117.00 1200.01 282 1007 3.000 10000.000 0.000 3.296
40 120.00 1200.01 299 933 3.000 10000.000 0.000 3.296
41 123.00 1200.01 316 972 3.000 10000.000 0.000 3.296
42 126.00 1200.01 331 999 3.000 10000.000 0.000 3.296
43 129.00 1200.01 337 949 3.000 10000.000 0.000 3.296
44 132.00 1200.01 316 981 3.000 10000.000 0.000 3.296
45 135.00 1200.01 336 893 3.000 10000.000 0.000 3.296
46 138.00 1200.01 364 968 3.000 10000.000 0.000 3.296
47 141.00 1200.01 327 857 3.000 10000.000 0.000 3.296
48 144.00 1200.01 341 923 3.000 10000.000 0.000 3.296
49 147.00 1200.01 350 864 3.000 10000.000 0.000 3.296
50 150.00 1200.01 372 830 3.000 10000.000 0.000 3.296
51 153.00 1200.01 328 778 3.000 10000.000 0.000 3.296
52 156.00 1200.01 358 821 3.000 10000.000 0.000 3.296
53 159.00 1200.01 341 837 3.000 10000.000 0.000 3.296
54 162.00 1200.01 305 828 3.000 10000.000 0.000 3.296
55 165.00 1200.01 335 856 3.000 10000.000 0.000 3.296
56 168.00 1200.01 304 867 3.000 10000.000 0.000 3.296
57 171.00 1200.01 314 918 3.000 10000.000 0.000 3.296
58 174.00 1200.01 315 857 3.000 10000.000 0.000 3.296
59 177.00 1200.01 312 920 3.000 10000.000 0.000 3.296
60 180.00 1200.01 292 968 3.000 10000.000 0.000 3.296
61 183.00 1200.01 293 938 3.000 10000.000 0.000 3.296
62 186.00 1200.01 260 982 3.000 10000.000 0.000 3.296
63 189.00 1200.01 273 993 3.000 10000.000 0.000 3.296
64 192.00 1200.01 288 928 3.000 10000.000 0.000 3.296
65 195.00 1200.01 238 982 3.000 10000.000 0.000 3.296
66 198.00 1200.01 277 978 3.000 10000.000 0.000 3.296
67 201.00 1200.01 263 977 3.000 10000.000 0.000 3.296
68 204.00 1200.01 299 997 3.000 10000.000 0.000 3.296
69 207.00 1200.01 299 991 3.000 10000.000 0.000 3.296
70 210.00 1200.01 280 966 3.000 10000.000 0.000 3.296
71 213.00 1200.01 276 1003 3.000 10000.000 0.000 3.296
72 216.00 1200.01 317 1010 3.000 10000.000 0.000 3.296
73 219.00 1200.01 310 965 3.000 10000.000 0.000 3.296
74 222.00 1200.01 331 998 3.000 10000.000 0.000 3.296
75 225.00 1200.01 354 977 3.000 10000.000 0.000 3.296
76 228.00 1200.01 304 1015 3.000 10000.000 0.000 3.296
77 231.00 1200.01 321 948 3.000 10000.000 0.000 3.296
78 234.00 1200.01 325 911 3.000 10000.000 0.000 3.296
79 237.00 1200.01 301 915 3.000 10000.000 0.000 3.296
80 240.00 1200.01 324 907 3.000 10000.000 0.000 3.296
81 243.00 1200.01 318 886 3.000 10000.000 0.000 3.296
82 246.00 1200.01 360 840 3.000 10000.000 0.000 3.296
83 249.00 1200.01 304 814 3.000 10000.000 0.000 3.296
84 252.00 1200.01 287 834 3.000 10000.000 0.000 3.296
85 255.00 1200.01 317 816 3.000 10000.000 0.000 3.296
86 258.00 1200.01 312 840 3.000 10000.000 0.000 3.296
87 261.00 1200.01 320 842 3.000 10000.000 0.000 3.296
88 264.00 1200.01 318 865 3.000 10000.000 0.000 3.296
89 267.00 1200.01 313 884 3.000 10000.000 0.000 3.296
90 270.00 1200.01 341 860 3.000 10000.000 0.000 3.296
91 273.00 1200.01 342 899 3.000 10000.000 0.000 3.296
92 276.00 1200.01 295 924 3.000 10000.000 0.000 3.296
93 279.00 1200.01 324 923 3.000 10000.000 0.000 3.296
94 282.00 1200.01 361 991 3.000 10000.000 0.000 3.296
95 285.00 1200.01 346 947 3.000 10000.000 0.000 3.296
96 288.00 1200.01 323 1015 3.000 10000.000 0.000 3.296
97 291.00 1200.01 353 954 3.000 10000.000 0.000 3.296
98 294.00 1200.01 352 1030 3.000 10000.000 0.000 3.296
99 297.00 1200.01 324 1002 3.000 10000.000 0.000 3.296
100 300.00 1200.01 315 1080 3.000 10000.000 0.000 3.296
101 303.00 1200.01 315 997 3.000 10000.000 0.000 3.296
102 306.00 1200.01 308 1060 3.000 10000.000 0.000 3.296
103 309.00 1200.01 320 998 3.000 10000.000 0.000 3.296
104 312.00 1200.01 314 968 3.000 10000.000 0.000 3.296
105 315.00 1200.01 266 982 3.000 10000.000 0.000 3.296
106 318.00 1200.01 301 934 3.000 10000.000 0.000 3.296
107 321.00 1200.01 260 974 3.000 10000.000 0.000 3.296
108 324.00 1200.01 283 981 3.000 10000.000 0.000 3.296
109 327.00 1200.01 250 957 3.000 10000.000 0.000 3.296
110 330.00 1200.01 271 948 3.000 10000.000 0.000 3.296
111 333.00 1200.01 222 913 3.000 10000.000 0.000 3.296
112 336.00 1200.01 265 970 3.000 10000.000 0.000 3.296
113 339.00 1200.01 290 940 3.000 10000.000 0.000 3.296
114 342.00 1200.01 271 888 3.000 10000.000 0.000 3.296
115 345.00 1200.01 319 904 3.000 10000.000 0.000 3.296
116 348.00 1200.01 292 842 3.000 10000.000 0.000 3.296
117 351.00 1200.01 294 809 3.000 10000.000 0.000 3.296
118 354.00 1200.01 313 815 3.000 10000.000 0.000 3.296
119 357.00 1200.01 328 803 3.000 10000.000 0.000 3.296
120 360.00 1200.01 325 853 3.000 10000.000 0.000 3.296
121 363.00 1200.01 316 826 3.000 10000.000 0.000 3.296
122 366.00 1200.01 363 888 3.000 10000.000 0.000 3.296
123 369.00 1200.01 320 878 3.000 10000.000 0.000 3.296
124 372.00 1200.01 324 877 3.000 10000.000 0.000 3.296
125 375.00 1200.01 347 915 3.000 10000.000 0.000 3.296
126 378.00 1200.01 339 964 3.000 10000.000 0.000 3.296
127 381.00 1200.01 363 817 3.000 10000.000 0.000 3.296
128 384.00 1200.01 317 978 3.000 10000.000 0.000 3.296
129 387.00 1200.01 352 993 3.000 10000.000 0.000 3.296
130 390.00 1200.01 319 1011 3.000 10000.000 0.000 3.296
131 393.00 1200.01 317 1043 3.000 10000.000 0.000 3.296
132 396.00 1200.01 294 1015 3.000 10000.000 0.000 3.296
133 399.00 1200.01 322 1012 3.000 10000.000 0.000 3.296
134 402.00 1200.01 323 929 3.000 10000.000 0.000 3.296
135 405.00 1200.01 328 955 3.000 10000.000 0.000 3.296
136 408.00 1200.01 309 1006 3.000 10000.000 0.000 3.296
137 411.00 1200.01 298 969 3.000 10000.000 0.000 3.296
138 414.00 1200.01 278 952 3.000 10000.000 0.000 3.296
139 417.00 1200.01 294 934 3.000 10000.000 0.000 3.296
140 420.00 1200.01 278 940 3.000 10000.000 0.000 3.296
141 423.00 1200.01 278 918 3.000 10000.000 0.000 3.296
