# BinNR microsec tot-time (s)  O-Beam AUX Ampl(V) f(Hz) phase(deg) chi(pos)
0 0.00 1200.00 140 287 1.400 10000.000 0.000 -0.154
1 3.00 1200.00 318 578 1.400 10000.000 0.000 -0.154
2 6.00 1200.00 303 512 1.400 10000.000 0.000 -0.154
3 9.00 1200.00 285 546 1.400 10000.000 0.000 -0.154
4 12.00 1200.00 279 479 1.400 10000.000 0.000 -0.154
5 15.00 1200.00 279 470 1.400 10000.000 0.000 -0.154
6 18.00 1200.00 280 483 1.400 10000.000 0.000 -0.154
7 21.00 1200.00 240 477 1.400 10000.000 0.000 -0.154
8 24.00 1200.00 224 464 1.400 10000.000 0.000 -0.154
9 27.00 1200.00 248 518 1.400 10000.000 0.000 -0.154
10 30.00 1200.00 260 575 1.400 10000.000 0.000 -0.154
11 33.00 1200.00 241 603 1.400 10000.000 0.000 -0.154
12 36.00 1200.00 257 624 1.400 10000.000 0.000 -0.154
13 39.00 1200.00 250 618 1.400 10000.000 0.000 -0.154
14 42.00 1200.00 230 640 1.400 10000.000 0.000 -0.154
15 45.00 1200.00 250 614 1.400 10000.000 0.000 -0.154
16 48.00 1200.00 245 644 1.400 10000.000 0.000 -0.154
17 51.00 1200.00 273 678 1.400 10000.000 0.000 -0.154
18 54.00 1200.00 241 620 1.400 10000.000 0.000 -0.154
19 57.00 1200.00 235 630 1.400 10000.000 0.000 -0.154
20 60.00 1200.00 251 648 1.400 10000.000 0.000 -0.154
21 63.00 1200.00 237 656 1.400 10000.000 0.000 -0.154
22 66.00 1200.00 287 645 1.400 10000.000 0.000 -0.154
23 69.00 1200.00 276 623 1.400 10000.000 0.000 -0.154
24 72.00 1200.00 264 618 1.400 10000.000 0.000 -0.154
25 75.00 1200.00 269 603 1.400 10000.000 0.000 -0.154
26 78.00 1200.00 274 606 1.400 10000.000 0.000 -0.154
27 81.00 1200.00 261 562 1.400 10000.000 0.000 -0.154
28 84.00 1200.00 286 572 1.400 10000.000 0.000 -0.154
29 87.00 1200.00 251 548 1.400 10000.000 0.000 -0.154
30 90.00 1200.00 303 584 1.400 10000.000 0.000 -0.154
31 93.00 1200.00 254 512 1.400 10000.000 0.000 -0.154
32 96.00 1200.00 281 499 1.400 10000.000 0.000 -0.154
33 99.00 1200.00 294 517 1.400 10000.000 0.000 -0.154
34 102.00 1200.00 277 461 1.400 10000.000 0.000 -0.154
35 105.00 1200.00 284 460 1.400 10000.000 0.000 -0.154
36 108.00 1200.00 296 450 1.400 10000.000 0.000 -0.154
37 111.00 1200.00 289 448 1.400 10000.000 0.000 -0.154
38 114.00 1200.00 246 429 1.400 10000.000 0.000 -0.154
39 117.00 1200.00 262 478 1.400 10000.000 0.000 -0.154
40 120.00 1200.00 255 513 1.400 10000.000 0.000 -0.154
41 123.00 1200.00 261 513 1.400 10000.000 0.000 -0.154
42 126.00 1200.00 285 509 1.400 10000.000 0.000 -0.154
43 129.00 1200.00 268 491 1.400 10000.000 0.000 -0.154
44 132.00 1200.00 252 564 1.400 10000.000 0.000 -0.154
45 135.00 1200.00 231 575 1.400 10000.000 0.000 -0.154
46 138.00 1200.00 241 616 1.400 10000.000 0.000 -0.154
47 141.00 1200.00 270 586 1.400 10000.000 0.000 -0.154
48 144.00 1200.00 241 647 1.400 10000.000 0.000 -0.154
49 147.00 1200.00 242 649 1.400 10000.000 0.000 -0.154
50 150.00 1200.00 249 652 1.400 10000.000 0.000 -0.154
51 153.00 1200.00 232 669 1.400 10000.000 0.000 -0.154
52 156.00 1200.00 268 670 1.400 10000.000 0.000 -0.154
53 159.00 1200.00 223 689 1.400 10000.000 0.000 -0.154
54 162.00 1200.00 254 666 1.400 10000.000 0.000 -0.154
55 165.00 1200.00 256 637 1.400 10000.000 0.000 -0.154
56 168.00 1200.00 236 681 1.400 10000.000 0.000 -0.154
57 171.00 1200.00 259 638 1.400 10000.000 0.000 -0.154
58 174.00 1200.00 279 591 1.400 10000.000 0.000 -0.154
59 177.00 1200.00 240 575 1.400 10000.000 0.000 -0.154
60 180.00 1200.00 280 577 1.400 10000.000 0.000 -0.154
61 183.00 1200.00 295 596 1.400 10000.000 0.000 -0.154
62 186.00 1200.00 295 558 1.400 10000.000 0.000 -0.154
63 189.00 1200.00 260 525 1.400 10000.000 0.000 -0.154
64 192.00 1200.00 290 515 1.400 10000.000 0.000 -0.154
65 195.00 1200.00 289 454 1.400 10000.000 0.000 -0.154
66 198.00 1200.00 310 496 1.400 10000.000 0.000 -0.154
67 201.00 1200.00 268 444 1.400 10000.000 0.000 -0.154
68 204.00 1200.00 297 488 1.400 10000.000 0.000 -0.154
69 207.00 1200.00 270 441 1.400 10000.000 0.000 -0.154
70 210.00 1200.00 295 443 1.400 10000.000 0.000 -0.154
71 213.00 1200.00 259 466 1.400 10000.000 0.000 -0.154
72 216.00 1200.00 281 491 1.400 10000.000 0.000 -0.154
73 219.00 1200.00 270 486 1.400 10000.000 0.000 -0.154
74 222.00 1200.00 256 535 1.400 10000.000 0.000 -0.154
75 225.00 1200.00 279 539 1.400 10000.000 0.000 -0.154
76 228.00 1200.00 280 581 1.400 10000.000 0.000 -0.154
77 231.00 1200.00 245 522 1.400 10000.000 0.000 -0.154
78 234.00 1200.00 265 578 1.400 10000.000 0.000 -0.154
79 237.00 1200.00 243 560 1.400 10000.000 0.000 -0.154
80 240.00 1200.00 242 630 1.400 10000.000 0.000 -0.154
81 243.00 1200.00 245 607 1.400 10000.000 0.000 -0.154
82 246.00 1200.00 250 615 1.400 10000.000 0.000 -0.154
83 249.00 1200.00 252 626 1.400 10000.000 0.000 -0.154
84 252.00 1200.00 283 640 1.400 10000.000 0.000 -0.154
85 255.00 1200.00 260 641 1.400 10000.000 0.000 -0.154
86 258.00 1200.00 291 663 1.400 10000.000 0.000 -0.154
87 261.00 1200.00 271 653 1.400 10000.000 0.000 -0.154
88 264.00 1200.00 277 601 1.400 10000.000 0.000 -0.154
89 267.00 1200.00 289 621 1.400 10000.000 0.000 -0.154
90 270.00 1200.00 275 650 1.400 10000.000 0.000 -0.154
91 273.00 1200.00 274 581 1.400 10000.000 0.000 -0.154
92 276.00 1200.00 261 645 1.400 10000.000 0.000 -0.154
93 279.00 1200.00 232 596 1.400 10000.000 0.000 -0.154
94 282.00 1200.00 261 584 1.400 10000.000 0.000 -0.154
95 285.00 1200.00 266 538 1.400 10000.000 0.000 -0.154
96 288.00 1200.00 242 563 1.400 10000.000 0.000 -0.154
97 291.00 1200.00 236 540 1.400 10000.000 0.000 -0.154
98 294.00 1200.00 251 550 1.400 10000.000 0.000 -0.154
99 297.00 1200.00 283 486 1.400 10000.000 0.000 -0.154
100 300.00 1200.00 281 502 1.400 10000.000 0.000 -0.154
101 303.00 1200.00 276 472 1.400 10000.000 0.000 -0.154
102 306.00 1200.00 261 449 1.400 10000.000 0.000 -0.154
103 309.00 1200.00 283 436 1.400 10000.000 0.000 -0.154
104 312.00 1200.00 272 453 1.400 10000.000 0.000 -0.154
105 315.00 1200.00 283 449 1.400 10000.000 0.000 -0.154
106 318.00 1200.00 261 462 1.400 10000.000 0.000 -0.154
107 321.00 1200.00 307 472 1.400 10000.000 0.000 -0.154
108 324.00 1200.00 321 532 1.400 10000.000 0.000 -0.154
109 327.00 1200.00 283 532 1.400 10000.000 0.000 -0.154
110 330.00 1200.00 277 520 1.400 10000.000 0.000 -0.154
111 333.00 1200.00 304 541 1.400 10000.000 0.000 -0.154
112 336.00 1200.00 292 586 1.400 10000.000 0.000 -0.154
113 339.00 1200.00 277 607 1.400 10000.000 0.000 -0.154
114 342.00 1200.00 302 595 1.400 10000.000 0.000 -0.154
115 345.00 1200.00 281 674 1.400 10000.000 0.000 -0.154
116 348.00 1200.00 290 640 1.400 10000.000 0.000 -0.154
117 351.00 1200.00 256 636 1.400 10000.000 0.000 -0.154
118 354.00 1200.00 251 635 1.400 10000.000 0.000 -0.154
119 357.00 1200.00 240 679 1.400 10000.000 0.000 -0.154
120 360.00 1200.00 268 626 1.400 10000.000 0.000 -0.154
121 363.00 1200.00 260 681 1.400 10000.000 0.000 -0.154
122 366.00 1200.00 241 609 1.400 10000.000 0.000 -0.154
123 369.00 1200.00 250 641 1.400 10000.000 0.000 -0.154
124 372.00 1200.00 249 633 1.400 10000.000 0.000 -0.154
125 375.00 1200.00 234 618 1.400 10000.000 0.000 -0.154
126 378.00 1200.00 246 600 1.400 10000.000 0.000 -0.154
127 381.00 1200.00 237 583 1.400 10000.000 0.000 -0.154
128 384.00 1200.00 244 547 1.400 10000.000 0.000 -0.154
129 387.00 1200.00 207 553 1.400 10000.000 0.000 -0.154
130 390.00 1200.00 257 537 1.400 10000.000 0.000 -0.154
131 393.00 1200.00 273 517 1.400 10000.000 0.000 -0.154
132 396.00 1200.00 246 525 1.400 10000.000 0.000 -0.154
133 399.00 1200.00 233 468 1.400 10000.000 0.000 -0.154
134 402.00 1200.00 279 505 1.400 10000.000 0.000 -0.154
135 405.00 1200.00 286 479 1.400 10000.000 0.000 -0.154
136 408.00 1200.00 271 498 1.400 10000.000 0.000 -0.154
137 411.00 1200.00 287 552 1.400 10000.000 0.000 -0.154
138 414.00 1200.00 277 565 1.400 10000.000 0.000 -0.154
139 417.00 1200.00 290 589 1.400 10000.000 0.000 -0.154
140 420.00 1200.00 296 629 1.400 10000.000 0.000 -0.154
141 423.00 1200.00 275 621 1.400 10000.000 0.000 -0.154
