# BinNR microsec tot-time (s)  O-Beam AUX Ampl_1(V) f_1(Hz) phase_1(deg) Ampl_2(V) f_2(Hz) phase_2(deg) chi(pos)
0 0.00 1500.02 118 437 0.370 10000.000 0.000 0.300 15000.000 0.000 1.154
1 3.00 1500.02 227 840 0.370 10000.000 0.000 0.300 15000.000 0.000 1.154
2 6.00 1500.02 264 863 0.370 10000.000 0.000 0.300 15000.000 0.000 1.154
3 9.00 1500.02 243 908 0.370 10000.000 0.000 0.300 15000.000 0.000 1.154
4 12.00 1500.02 213 942 0.370 10000.000 0.000 0.300 15000.000 0.000 1.154
5 15.00 1500.02 226 776 0.370 10000.000 0.000 0.300 15000.000 0.000 1.154
6 18.00 1500.02 241 836 0.370 10000.000 0.000 0.300 15000.000 0.000 1.154
7 21.00 1500.02 227 769 0.370 10000.000 0.000 0.300 15000.000 0.000 1.154
8 24.00 1500.02 202 793 0.370 10000.000 0.000 0.300 15000.000 0.000 1.154
9 27.00 1500.02 207 771 0.370 10000.000 0.000 0.300 15000.000 0.000 1.154
10 30.00 1500.02 219 819 0.370 10000.000 0.000 0.300 15000.000 0.000 1.154
11 33.00 1500.02 175 680 0.370 10000.000 0.000 0.300 15000.000 0.000 1.154
12 36.00 1500.02 219 725 0.370 10000.000 0.000 0.300 15000.000 0.000 1.154
13 39.00 1500.02 213 709 0.370 10000.000 0.000 0.300 15000.000 0.000 1.154
14 42.00 1500.02 171 759 0.370 10000.000 0.000 0.300 15000.000 0.000 1.154
15 45.00 1500.02 204 763 0.370 10000.000 0.000 0.300 15000.000 0.000 1.154
16 48.00 1500.02 204 765 0.370 10000.000 0.000 0.300 15000.000 0.000 1.154
17 51.00 1500.02 189 830 0.370 10000.000 0.000 0.300 15000.000 0.000 1.154
18 54.00 1500.02 212 871 0.370 10000.000 0.000 0.300 15000.000 0.000 1.154
19 57.00 1500.02 210 809 0.370 10000.000 0.000 0.300 15000.000 0.000 1.154
20 60.00 1500.02 208 832 0.370 10000.000 0.000 0.300 15000.000 0.000 1.154
21 63.00 1500.02 200 803 0.370 10000.000 0.000 0.300 15000.000 0.000 1.154
22 66.00 1500.02 224 818 0.370 10000.000 0.000 0.300 15000.000 0.000 1.154
23 69.00 1500.02 222 760 0.370 10000.000 0.000 0.300 15000.000 0.000 1.154
24 72.00 1500.02 269 726 0.370 10000.000 0.000 0.300 15000.000 0.000 1.154
25 75.00 1500.02 239 702 0.370 10000.000 0.000 0.300 15000.000 0.000 1.154
26 78.00 1500.02 252 651 0.370 10000.000 0.000 0.300 15000.000 0.000 1.154
27 81.00 1500.02 288 624 0.370 10000.000 0.000 0.300 15000.000 0.000 1.154
28 84.00 1500.02 279 586 0.370 10000.000 0.000 0.300 15000.000 0.000 1.154
29 87.00 1500.02 258 570 0.370 10000.000 0.000 0.300 15000.000 0.000 1.154
30 90.00 1500.02 264 607 0.370 10000.000 0.000 0.300 15000.000 0.000 1.154
31 93.00 1500.02 261 630 0.370 10000.000 0.000 0.300 15000.000 0.000 1.154
32 96.00 1500.02 265 655 0.370 10000.000 0.000 0.300 15000.000 0.000 1.154
33 99.00 1500.02 255 595 0.370 10000.000 0.000 0.300 15000.000 0.000 1.154
34 102.00 1500.02 238 722 0.370 10000.000 0.000 0.300 15000.000 0.000 1.154
35 105.00 1500.02 223 724 0.370 10000.000 0.000 0.300 15000.000 0.000 1.154
36 108.00 1500.02 248 736 0.370 10000.000 0.000 0.300 15000.000 0.000 1.154
37 111.00 1500.02 221 775 0.370 10000.000 0.000 0.300 15000.000 0.000 1.154
38 114.00 1500.02 202 815 0.370 10000.000 0.000 0.300 15000.000 0.000 1.154
39 117.00 1500.02 205 756 0.370 10000.000 0.000 0.300 15000.000 0.000 1.154
40 120.00 1500.02 185 827 0.370 10000.000 0.000 0.300 15000.000 0.000 1.154
41 123.00 1500.02 197 796 0.370 10000.000 0.000 0.300 15000.000 0.000 1.154
42 126.00 1500.02 188 800 0.370 10000.000 0.000 0.300 15000.000 0.000 1.154
43 129.00 1500.02 186 808 0.370 10000.000 0.000 0.300 15000.000 0.000 1.154
44 132.00 1500.02 191 763 0.370 10000.000 0.000 0.300 15000.000 0.000 1.154
45 135.00 1500.02 233 782 0.370 10000.000 0.000 0.300 15000.000 0.000 1.154
46 138.00 1500.02 207 766 0.370 10000.000 0.000 0.300 15000.000 0.000 1.154
47 141.00 1500.02 213 744 0.370 10000.000 0.000 0.300 15000.000 0.000 1.154
48 144.00 1500.02 209 720 0.370 10000.000 0.000 0.300 15000.000 0.000 1.154
49 147.00 1500.02 219 814 0.370 10000.000 0.000 0.300 15000.000 0.000 1.154
50 150.00 1500.02 201 727 0.370 10000.000 0.000 0.300 15000.000 0.000 1.154
51 153.00 1500.02 239 754 0.370 10000.000 0.000 0.300 15000.000 0.000 1.154
52 156.00 1500.02 245 806 0.370 10000.000 0.000 0.300 15000.000 0.000 1.154
53 159.00 1500.02 245 769 0.370 10000.000 0.000 0.300 15000.000 0.000 1.154
54 162.00 1500.02 222 767 0.370 10000.000 0.000 0.300 15000.000 0.000 1.154
55 165.00 1500.02 212 758 0.370 10000.000 0.000 0.300 15000.000 0.000 1.154
56 168.00 1500.02 239 784 0.370 10000.000 0.000 0.300 15000.000 0.000 1.154
57 171.00 1500.02 210 835 0.370 10000.000 0.000 0.300 15000.000 0.000 1.154
58 174.00 1500.02 261 816 0.370 10000.000 0.000 0.300 15000.000 0.000 1.154
59 177.00 1500.02 219 741 0.370 10000.000 0.000 0.300 15000.000 0.000 1.154
60 180.00 1500.02 208 814 0.370 10000.000 0.000 0.300 15000.000 0.000 1.154
61 183.00 1500.02 203 805 0.370 10000.000 0.000 0.300 15000.000 0.000 1.154
62 186.00 1500.02 258 749 0.370 10000.000 0.000 0.300 15000.000 0.000 1.154
63 189.00 1500.02 223 710 0.370 10000.000 0.000 0.300 15000.000 0.000 1.154
64 192.00 1500.02 230 746 0.370 10000.000 0.000 0.300 15000.000 0.000 1.154
65 195.00 1500.02 240 738 0.370 10000.000 0.000 0.300 15000.000 0.000 1.154
66 198.00 1500.02 234 673 0.370 10000.000 0.000 0.300 15000.000 0.000 1.154
67 201.00 1500.02 219 645 0.370 10000.000 0.000 0.300 15000.000 0.000 1.154
68 204.00 1500.02 235 614 0.370 10000.000 0.000 0.300 15000.000 0.000 1.154
69 207.00 1500.02 212 573 0.370 10000.000 0.000 0.300 15000.000 0.000 1.154
70 210.00 1500.02 237 604 0.370 10000.000 0.000 0.300 15000.000 0.000 1.154
71 213.00 1500.02 260 566 0.370 10000.000 0.000 0.300 15000.000 0.000 1.154
72 216.00 1500.02 197 662 0.370 10000.000 0.000 0.300 15000.000 0.000 1.154
73 219.00 1500.02 219 651 0.370 10000.000 0.000 0.300 15000.000 0.000 1.154
74 222.00 1500.02 230 727 0.370 10000.000 0.000 0.300 15000.000 0.000 1.154
75 225.00 1500.02 223 706 0.370 10000.000 0.000 0.300 15000.000 0.000 1.154
76 228.00 1500.02 191 776 0.370 10000.000 0.000 0.300 15000.000 0.000 1.154
77 231.00 1500.02 180 756 0.370 10000.000 0.000 0.300 15000.000 0.000 1.154
78 234.00 1500.02 249 850 0.370 10000.000 0.000 0.300 15000.000 0.000 1.154
79 237.00 1500.02 181 903 0.370 10000.000 0.000 0.300 15000.000 0.000 1.154
80 240.00 1500.02 195 889 0.370 10000.000 0.000 0.300 15000.000 0.000 1.154
81 243.00 1500.02 191 941 0.370 10000.000 0.000 0.300 15000.000 0.000 1.154
82 246.00 1500.02 200 930 0.370 10000.000 0.000 0.300 15000.000 0.000 1.154
83 249.00 1500.02 186 949 0.370 10000.000 0.000 0.300 15000.000 0.000 1.154
84 252.00 1500.02 190 948 0.370 10000.000 0.000 0.300 15000.000 0.000 1.154
85 255.00 1500.02 164 895 0.370 10000.000 0.000 0.300 15000.000 0.000 1.154
86 258.00 1500.02 189 930 0.370 10000.000 0.000 0.300 15000.000 0.000 1.154
87 261.00 1500.02 221 798 0.370 10000.000 0.000 0.300 15000.000 0.000 1.154
88 264.00 1500.02 213 878 0.370 10000.000 0.000 0.300 15000.000 0.000 1.154
89 267.00 1500.02 225 722 0.370 10000.000 0.000 0.300 15000.000 0.000 1.154
90 270.00 1500.02 265 716 0.370 10000.000 0.000 0.300 15000.000 0.000 1.154
91 273.00 1500.02 266 667 0.370 10000.000 0.000 0.300 15000.000 0.000 1.154
92 276.00 1500.02 256 729 0.370 10000.000 0.000 0.300 15000.000 0.000 1.154
93 279.00 1500.02 229 609 0.370 10000.000 0.000 0.300 15000.000 0.000 1.154
94 282.00 1500.02 261 600 0.370 10000.000 0.000 0.300 15000.000 0.000 1.154
95 285.00 1500.02 237 629 0.370 10000.000 0.000 0.300 15000.000 0.000 1.154
96 288.00 1500.02 225 616 0.370 10000.000 0.000 0.300 15000.000 0.000 1.154
97 291.00 1500.02 219 615 0.370 10000.000 0.000 0.300 15000.000 0.000 1.154
98 294.00 1500.02 238 650 0.370 10000.000 0.000 0.300 15000.000 0.000 1.154
99 297.00 1500.02 226 652 0.370 10000.000 0.000 0.300 15000.000 0.000 1.154
100 300.00 1500.02 218 678 0.370 10000.000 0.000 0.300 15000.000 0.000 1.154
101 303.00 1500.02 215 724 0.370 10000.000 0.000 0.300 15000.000 0.000 1.154
102 306.00 1500.02 204 725 0.370 10000.000 0.000 0.300 15000.000 0.000 1.154
103 309.00 1500.02 229 740 0.370 10000.000 0.000 0.300 15000.000 0.000 1.154
104 312.00 1500.02 231 834 0.370 10000.000 0.000 0.300 15000.000 0.000 1.154
105 315.00 1500.02 200 819 0.370 10000.000 0.000 0.300 15000.000 0.000 1.154
106 318.00 1500.02 228 817 0.370 10000.000 0.000 0.300 15000.000 0.000 1.154
107 321.00 1500.02 220 806 0.370 10000.000 0.000 0.300 15000.000 0.000 1.154
108 324.00 1500.02 228 826 0.370 10000.000 0.000 0.300 15000.000 0.000 1.154
109 327.00 1500.02 250 793 0.370 10000.000 0.000 0.300 15000.000 0.000 1.154
110 330.00 1500.02 228 753 0.370 10000.000 0.000 0.300 15000.000 0.000 1.154
111 333.00 1500.02 251 793 0.370 10000.000 0.000 0.300 15000.000 0.000 1.154
112 336.00 1500.02 243 798 0.370 10000.000 0.000 0.300 15000.000 0.000 1.154
113 339.00 1500.02 229 753 0.370 10000.000 0.000 0.300 15000.000 0.000 1.154
114 342.00 1500.02 221 742 0.370 10000.000 0.000 0.300 15000.000 0.000 1.154
115 345.00 1500.02 214 748 0.370 10000.000 0.000 0.300 15000.000 0.000 1.154
116 348.00 1500.02 200 768 0.370 10000.000 0.000 0.300 15000.000 0.000 1.154
117 351.00 1500.02 198 779 0.370 10000.000 0.000 0.300 15000.000 0.000 1.154
118 354.00 1500.02 193 727 0.370 10000.000 0.000 0.300 15000.000 0.000 1.154
119 357.00 1500.02 176 758 0.370 10000.000 0.000 0.300 15000.000 0.000 1.154
120 360.00 1500.02 213 746 0.370 10000.000 0.000 0.300 15000.000 0.000 1.154
121 363.00 1500.02 186 812 0.370 10000.000 0.000 0.300 15000.000 0.000 1.154
122 366.00 1500.02 198 827 0.370 10000.000 0.000 0.300 15000.000 0.000 1.154
123 369.00 1500.02 180 841 0.370 10000.000 0.000 0.300 15000.000 0.000 1.154
124 372.00 1500.02 205 790 0.370 10000.000 0.000 0.300 15000.000 0.000 1.154
125 375.00 1500.02 219 831 0.370 10000.000 0.000 0.300 15000.000 0.000 1.154
126 378.00 1500.02 208 854 0.370 10000.000 0.000 0.300 15000.000 0.000 1.154
127 381.00 1500.02 244 731 0.370 10000.000 0.000 0.300 15000.000 0.000 1.154
128 384.00 1500.02 236 775 0.370 10000.000 0.000 0.300 15000.000 0.000 1.154
129 387.00 1500.02 216 767 0.370 10000.000 0.000 0.300 15000.000 0.000 1.154
130 390.00 1500.02 223 735 0.370 10000.000 0.000 0.300 15000.000 0.000 1.154
131 393.00 1500.02 232 693 0.370 10000.000 0.000 0.300 15000.000 0.000 1.154
132 396.00 1500.02 238 663 0.370 10000.000 0.000 0.300 15000.000 0.000 1.154
133 399.00 1500.02 243 642 0.370 10000.000 0.000 0.300 15000.000 0.000 1.154
134 402.00 1500.02 247 622 0.370 10000.000 0.000 0.300 15000.000 0.000 1.154
135 405.00 1500.02 234 596 0.370 10000.000 0.000 0.300 15000.000 0.000 1.154
136 408.00 1500.02 241 628 0.370 10000.000 0.000 0.300 15000.000 0.000 1.154
137 411.00 1500.02 237 630 0.370 10000.000 0.000 0.300 15000.000 0.000 1.154
138 414.00 1500.02 245 587 0.370 10000.000 0.000 0.300 15000.000 0.000 1.154
139 417.00 1500.02 220 662 0.370 10000.000 0.000 0.300 15000.000 0.000 1.154
140 420.00 1500.02 241 684 0.370 10000.000 0.000 0.300 15000.000 0.000 1.154
141 423.00 1500.02 216 690 0.370 10000.000 0.000 0.300 15000.000 0.000 1.154
142 426.00 1500.02 227 740 0.370 10000.000 0.000 0.300 15000.000 0.000 1.154
143 429.00 1500.02 261 766 0.370 10000.000 0.000 0.300 15000.000 0.000 1.154
144 432.00 1500.02 227 817 0.370 10000.000 0.000 0.300 15000.000 0.000 1.154
