# BinNR microsec tot-time (s)  O-Beam AUX Ampl_1(V) f_1(Hz) phase_1(deg) Ampl_2(V) f_2(Hz) phase_2(deg) chi(pos)
0 0.00 1500.02 118 475 0.370 10000.000 0.000 0.300 15000.000 0.000 -0.835
1 3.00 1500.02 279 954 0.370 10000.000 0.000 0.300 15000.000 0.000 -0.835
2 6.00 1500.02 276 952 0.370 10000.000 0.000 0.300 15000.000 0.000 -0.835
3 9.00 1500.02 282 988 0.370 10000.000 0.000 0.300 15000.000 0.000 -0.835
4 12.00 1500.02 303 925 0.370 10000.000 0.000 0.300 15000.000 0.000 -0.835
5 15.00 1500.02 265 860 0.370 10000.000 0.000 0.300 15000.000 0.000 -0.835
6 18.00 1500.02 272 862 0.370 10000.000 0.000 0.300 15000.000 0.000 -0.835
7 21.00 1500.02 283 894 0.370 10000.000 0.000 0.300 15000.000 0.000 -0.835
8 24.00 1500.02 269 914 0.370 10000.000 0.000 0.300 15000.000 0.000 -0.835
9 27.00 1500.02 247 821 0.370 10000.000 0.000 0.300 15000.000 0.000 -0.835
10 30.00 1500.02 232 877 0.370 10000.000 0.000 0.300 15000.000 0.000 -0.835
11 33.00 1500.02 232 787 0.370 10000.000 0.000 0.300 15000.000 0.000 -0.835
12 36.00 1500.02 258 810 0.370 10000.000 0.000 0.300 15000.000 0.000 -0.835
13 39.00 1500.02 234 872 0.370 10000.000 0.000 0.300 15000.000 0.000 -0.835
14 42.00 1500.02 210 900 0.370 10000.000 0.000 0.300 15000.000 0.000 -0.835
15 45.00 1500.02 223 896 0.370 10000.000 0.000 0.300 15000.000 0.000 -0.835
16 48.00 1500.02 229 880 0.370 10000.000 0.000 0.300 15000.000 0.000 -0.835
17 51.00 1500.02 219 904 0.370 10000.000 0.000 0.300 15000.000 0.000 -0.835
18 54.00 1500.02 217 921 0.370 10000.000 0.000 0.300 15000.000 0.000 -0.835
19 57.00 1500.02 228 943 0.370 10000.000 0.000 0.300 15000.000 0.000 -0.835
20 60.00 1500.02 247 933 0.370 10000.000 0.000 0.300 15000.000 0.000 -0.835
21 63.00 1500.02 262 917 0.370 10000.000 0.000 0.300 15000.000 0.000 -0.835
22 66.00 1500.02 259 951 0.370 10000.000 0.000 0.300 15000.000 0.000 -0.835
23 69.00 1500.02 268 805 0.370 10000.000 0.000 0.300 15000.000 0.000 -0.835
24 72.00 1500.02 283 824 0.370 10000.000 0.000 0.300 15000.000 0.000 -0.835
25 75.00 1500.02 298 793 0.370 10000.000 0.000 0.300 15000.000 0.000 -0.835
26 78.00 1500.02 300 723 0.370 10000.000 0.000 0.300 15000.000 0.000 -0.835
27 81.00 1500.02 290 736 0.370 10000.000 0.000 0.300 15000.000 0.000 -0.835
28 84.00 1500.02 291 757 0.370 10000.000 0.000 0.300 15000.000 0.000 -0.835
29 87.00 1500.02 297 715 0.370 10000.000 0.000 0.300 15000.000 0.000 -0.835
30 90.00 1500.02 288 780 0.370 10000.000 0.000 0.300 15000.000 0.000 -0.835
31 93.00 1500.02 285 716 0.370 10000.000 0.000 0.300 15000.000 0.000 -0.835
32 96.00 1500.02 278 756 0.370 10000.000 0.000 0.300 15000.000 0.000 -0.835
33 99.00 1500.02 272 737 0.370 10000.000 0.000 0.300 15000.000 0.000 -0.835
34 102.00 1500.02 262 816 0.370 10000.000 0.000 0.300 15000.000 0.000 -0.835
35 105.00 1500.02 248 829 0.370 10000.000 0.000 0.300 15000.000 0.000 -0.835
36 108.00 1500.02 239 872 0.370 10000.000 0.000 0.300 15000.000 0.000 -0.835
37 111.00 1500.02 236 923 0.370 10000.000 0.000 0.300 15000.000 0.000 -0.835
38 114.00 1500.02 232 916 0.370 10000.000 0.000 0.300 15000.000 0.000 -0.835
39 117.00 1500.02 234 885 0.370 10000.000 0.000 0.300 15000.000 0.000 -0.835
40 120.00 1500.02 243 880 0.370 10000.000 0.000 0.300 15000.000 0.000 -0.835
41 123.00 1500.02 216 956 0.370 10000.000 0.000 0.300 15000.000 0.000 -0.835
42 126.00 1500.02 225 971 0.370 10000.000 0.000 0.300 15000.000 0.000 -0.835
43 129.00 1500.02 231 868 0.370 10000.000 0.000 0.300 15000.000 0.000 -0.835
44 132.00 1500.02 217 932 0.370 10000.000 0.000 0.300 15000.000 0.000 -0.835
45 135.00 1500.02 230 831 0.370 10000.000 0.000 0.300 15000.000 0.000 -0.835
46 138.00 1500.02 242 936 0.370 10000.000 0.000 0.300 15000.000 0.000 -0.835
47 141.00 1500.02 225 850 0.370 10000.000 0.000 0.300 15000.000 0.000 -0.835
48 144.00 1500.02 235 866 0.370 10000.000 0.000 0.300 15000.000 0.000 -0.835
49 147.00 1500.02 257 819 0.370 10000.000 0.000 0.300 15000.000 0.000 -0.835
50 150.00 1500.02 244 814 0.370 10000.000 0.000 0.300 15000.000 0.000 -0.835
51 153.00 1500.02 267 853 0.370 10000.000 0.000 0.300 15000.000 0.000 -0.835
52 156.00 1500.02 264 863 0.370 10000.000 0.000 0.300 15000.000 0.000 -0.835
53 159.00 1500.02 234 821 0.370 10000.000 0.000 0.300 15000.000 0.000 -0.835
54 162.00 1500.02 294 906 0.370 10000.000 0.000 0.300 15000.000 0.000 -0.835
55 165.00 1500.02 247 884 0.370 10000.000 0.000 0.300 15000.000 0.000 -0.835
56 168.00 1500.02 263 922 0.370 10000.000 0.000 0.300 15000.000 0.000 -0.835
57 171.00 1500.02 272 907 0.370 10000.000 0.000 0.300 15000.000 0.000 -0.835
58 174.00 1500.02 249 946 0.370 10000.000 0.000 0.300 15000.000 0.000 -0.835
59 177.00 1500.02 262 936 0.370 10000.000 0.000 0.300 15000.000 0.000 -0.835
60 180.00 1500.02 259 923 0.370 10000.000 0.000 0.300 15000.000 0.000 -0.835
61 183.00 1500.02 255 858 0.370 10000.000 0.000 0.300 15000.000 0.000 -0.835
62 186.00 1500.02 271 866 0.370 10000.000 0.000 0.300 15000.000 0.000 -0.835
63 189.00 1500.02 232 822 0.370 10000.000 0.000 0.300 15000.000 0.000 -0.835
64 192.00 1500.02 267 892 0.370 10000.000 0.000 0.300 15000.000 0.000 -0.835
65 195.00 1500.02 248 759 0.370 10000.000 0.000 0.300 15000.000 0.000 -0.835
66 198.00 1500.02 275 792 0.370 10000.000 0.000 0.300 15000.000 0.000 -0.835
67 201.00 1500.02 279 782 0.370 10000.000 0.000 0.300 15000.000 0.000 -0.835
68 204.00 1500.02 268 736 0.370 10000.000 0.000 0.300 15000.000 0.000 -0.835
69 207.00 1500.02 269 696 0.370 10000.000 0.000 0.300 15000.000 0.000 -0.835
70 210.00 1500.02 268 703 0.370 10000.000 0.000 0.300 15000.000 0.000 -0.835
71 213.00 1500.02 262 707 0.370 10000.000 0.000 0.300 15000.000 0.000 -0.835
72 216.00 1500.02 267 748 0.370 10000.000 0.000 0.300 15000.000 0.000 -0.835
73 219.00 1500.02 291 759 0.370 10000.000 0.000 0.300 15000.000 0.000 -0.835
74 222.00 1500.02 236 822 0.370 10000.000 0.000 0.300 15000.000 0.000 -0.835
75 225.00 1500.02 238 833 0.370 10000.000 0.000 0.300 15000.000 0.000 -0.835
76 228.00 1500.02 271 861 0.370 10000.000 0.000 0.300 15000.000 0.000 -0.835
77 231.00 1500.02 228 930 0.370 10000.000 0.000 0.300 15000.000 0.000 -0.835
78 234.00 1500.02 230 936 0.370 10000.000 0.000 0.300 15000.000 0.000 -0.835
79 237.00 1500.02 222 868 0.370 10000.000 0.000 0.300 15000.000 0.000 -0.835
80 240.00 1500.02 242 1014 0.370 10000.000 0.000 0.300 15000.000 0.000 -0.835
81 243.00 1500.02 209 980 0.370 10000.000 0.000 0.300 15000.000 0.000 -0.835
82 246.00 1500.02 218 982 0.370 10000.000 0.000 0.300 15000.000 0.000 -0.835
83 249.00 1500.02 238 997 0.370 10000.000 0.000 0.300 15000.000 0.000 -0.835
84 252.00 1500.02 229 1023 0.370 10000.000 0.000 0.300 15000.000 0.000 -0.835
85 255.00 1500.02 225 1007 0.370 10000.000 0.000 0.300 15000.000 0.000 -0.835
86 258.00 1500.02 253 909 0.370 10000.000 0.000 0.300 15000.000 0.000 -0.835
87 261.00 1500.02 240 930 0.370 10000.000 0.000 0.300 15000.000 0.000 -0.835
88 264.00 1500.02 230 904 0.370 10000.000 0.000 0.300 15000.000 0.000 -0.835
89 267.00 1500.02 265 857 0.370 10000.000 0.000 0.300 15000.000 0.000 -0.835
90 270.00 1500.02 262 798 0.370 10000.000 0.000 0.300 15000.000 0.000 -0.835
91 273.00 1500.02 260 745 0.370 10000.000 0.000 0.300 15000.000 0.000 -0.835
92 276.00 1500.02 301 788 0.370 10000.000 0.000 0.300 15000.000 0.000 -0.835
93 279.00 1500.02 280 796 0.370 10000.000 0.000 0.300 15000.000 0.000 -0.835
94 282.00 1500.02 274 710 0.370 10000.000 0.000 0.300 15000.000 0.000 -0.835
95 285.00 1500.02 260 711 0.370 10000.000 0.000 0.300 15000.000 0.000 -0.835
96 288.00 1500.02 296 683 0.370 10000.000 0.000 0.300 15000.000 0.000 -0.835
97 291.00 1500.02 254 708 0.370 10000.000 0.000 0.300 15000.000 0.000 -0.835
98 294.00 1500.02 255 777 0.370 10000.000 0.000 0.300 15000.000 0.000 -0.835
99 297.00 1500.02 288 754 0.370 10000.000 0.000 0.300 15000.000 0.000 -0.835
100 300.00 1500.02 273 756 0.370 10000.000 0.000 0.300 15000.000 0.000 -0.835
101 303.00 1500.02 277 784 0.370 10000.000 0.000 0.300 15000.000 0.000 -0.835
102 306.00 1500.02 264 884 0.370 10000.000 0.000 0.300 15000.000 0.000 -0.835
103 309.00 1500.02 274 877 0.370 10000.000 0.000 0.300 15000.000 0.000 -0.835
104 312.00 1500.02 254 854 0.370 10000.000 0.000 0.300 15000.000 0.000 -0.835
105 315.00 1500.02 278 926 0.370 10000.000 0.000 0.300 15000.000 0.000 -0.835
106 318.00 1500.02 272 876 0.370 10000.000 0.000 0.300 15000.000 0.000 -0.835
107 321.00 1500.02 256 932 0.370 10000.000 0.000 0.300 15000.000 0.000 -0.835
108 324.00 1500.02 269 922 0.370 10000.000 0.000 0.300 15000.000 0.000 -0.835
109 327.00 1500.02 241 885 0.370 10000.000 0.000 0.300 15000.000 0.000 -0.835
110 330.00 1500.02 269 921 0.370 10000.000 0.000 0.300 15000.000 0.000 -0.835
111 333.00 1500.02 263 940 0.370 10000.000 0.000 0.300 15000.000 0.000 -0.835
112 336.00 1500.02 268 927 0.370 10000.000 0.000 0.300 15000.000 0.000 -0.835
113 339.00 1500.02 235 830 0.370 10000.000 0.000 0.300 15000.000 0.000 -0.835
114 342.00 1500.02 292 833 0.370 10000.000 0.000 0.300 15000.000 0.000 -0.835
115 345.00 1500.02 224 810 0.370 10000.000 0.000 0.300 15000.000 0.000 -0.835
116 348.00 1500.02 228 870 0.370 10000.000 0.000 0.300 15000.000 0.000 -0.835
117 351.00 1500.02 237 859 0.370 10000.000 0.000 0.300 15000.000 0.000 -0.835
118 354.00 1500.02 220 879 0.370 10000.000 0.000 0.300 15000.000 0.000 -0.835
119 357.00 1500.02 208 893 0.370 10000.000 0.000 0.300 15000.000 0.000 -0.835
120 360.00 1500.02 218 903 0.370 10000.000 0.000 0.300 15000.000 0.000 -0.835
121 363.00 1500.02 241 842 0.370 10000.000 0.000 0.300 15000.000 0.000 -0.835
122 366.00 1500.02 243 878 0.370 10000.000 0.000 0.300 15000.000 0.000 -0.835
123 369.00 1500.02 241 880 0.370 10000.000 0.000 0.300 15000.000 0.000 -0.835
124 372.00 1500.02 225 883 0.370 10000.000 0.000 0.300 15000.000 0.000 -0.835
125 375.00 1500.02 267 857 0.370 10000.000 0.000 0.300 15000.000 0.000 -0.835
126 378.00 1500.02 261 941 0.370 10000.000 0.000 0.300 15000.000 0.000 -0.835
127 381.00 1500.02 257 934 0.370 10000.000 0.000 0.300 15000.000 0.000 -0.835
128 384.00 1500.02 265 905 0.370 10000.000 0.000 0.300 15000.000 0.000 -0.835
129 387.00 1500.02 281 830 0.370 10000.000 0.000 0.300 15000.000 0.000 -0.835
130 390.00 1500.02 238 845 0.370 10000.000 0.000 0.300 15000.000 0.000 -0.835
131 393.00 1500.02 248 790 0.370 10000.000 0.000 0.300 15000.000 0.000 -0.835
132 396.00 1500.02 293 774 0.370 10000.000 0.000 0.300 15000.000 0.000 -0.835
133 399.00 1500.02 257 732 0.370 10000.000 0.000 0.300 15000.000 0.000 -0.835
134 402.00 1500.02 260 787 0.370 10000.000 0.000 0.300 15000.000 0.000 -0.835
135 405.00 1500.02 261 736 0.370 10000.000 0.000 0.300 15000.000 0.000 -0.835
136 408.00 1500.02 257 725 0.370 10000.000 0.000 0.300 15000.000 0.000 -0.835
137 411.00 1500.02 247 698 0.370 10000.000 0.000 0.300 15000.000 0.000 -0.835
138 414.00 1500.02 263 712 0.370 10000.000 0.000 0.300 15000.000 0.000 -0.835
139 417.00 1500.02 268 757 0.370 10000.000 0.000 0.300 15000.000 0.000 -0.835
140 420.00 1500.02 249 792 0.370 10000.000 0.000 0.300 15000.000 0.000 -0.835
141 423.00 1500.02 260 815 0.370 10000.000 0.000 0.300 15000.000 0.000 -0.835
142 426.00 1500.02 274 801 0.370 10000.000 0.000 0.300 15000.000 0.000 -0.835
143 429.00 1500.02 271 816 0.370 10000.000 0.000 0.300 15000.000 0.000 -0.835
144 432.00 1500.02 277 877 0.370 10000.000 0.000 0.300 15000.000 0.000 -0.835
