# BinNR microsec tot-time (s)  O-Beam AUX Ampl(V) f(Hz) phase(deg) chi(pos)
0 0.00 1500.00 158 330 1.520 10000.000 0.000 0.670
1 3.00 1500.00 257 625 1.520 10000.000 0.000 0.670
2 6.00 1500.00 270 649 1.520 10000.000 0.000 0.670
3 9.00 1500.00 256 590 1.520 10000.000 0.000 0.670
4 12.00 1500.00 270 595 1.520 10000.000 0.000 0.670
5 15.00 1500.00 278 568 1.520 10000.000 0.000 0.670
6 18.00 1500.00 243 580 1.520 10000.000 0.000 0.670
7 21.00 1500.00 236 567 1.520 10000.000 0.000 0.670
8 24.00 1500.00 243 564 1.520 10000.000 0.000 0.670
9 27.00 1500.00 300 592 1.520 10000.000 0.000 0.670
10 30.00 1500.00 266 593 1.520 10000.000 0.000 0.670
11 33.00 1500.00 263 609 1.520 10000.000 0.000 0.670
12 36.00 1500.00 256 586 1.520 10000.000 0.000 0.670
13 39.00 1500.00 253 630 1.520 10000.000 0.000 0.670
14 42.00 1500.00 244 576 1.520 10000.000 0.000 0.670
15 45.00 1500.00 281 596 1.520 10000.000 0.000 0.670
16 48.00 1500.00 275 606 1.520 10000.000 0.000 0.670
17 51.00 1500.00 269 570 1.520 10000.000 0.000 0.670
18 54.00 1500.00 247 623 1.520 10000.000 0.000 0.670
19 57.00 1500.00 260 583 1.520 10000.000 0.000 0.670
20 60.00 1500.00 257 536 1.520 10000.000 0.000 0.670
21 63.00 1500.00 259 577 1.520 10000.000 0.000 0.670
22 66.00 1500.00 271 622 1.520 10000.000 0.000 0.670
23 69.00 1500.00 242 643 1.520 10000.000 0.000 0.670
24 72.00 1500.00 271 611 1.520 10000.000 0.000 0.670
25 75.00 1500.00 239 588 1.520 10000.000 0.000 0.670
26 78.00 1500.00 272 567 1.520 10000.000 0.000 0.670
27 81.00 1500.00 254 576 1.520 10000.000 0.000 0.670
28 84.00 1500.00 275 595 1.520 10000.000 0.000 0.670
29 87.00 1500.00 240 569 1.520 10000.000 0.000 0.670
30 90.00 1500.00 276 616 1.520 10000.000 0.000 0.670
31 93.00 1500.00 285 586 1.520 10000.000 0.000 0.670
32 96.00 1500.00 283 607 1.520 10000.000 0.000 0.670
33 99.00 1500.00 278 615 1.520 10000.000 0.000 0.670
34 102.00 1500.00 256 597 1.520 10000.000 0.000 0.670
35 105.00 1500.00 252 631 1.520 10000.000 0.000 0.670
36 108.00 1500.00 246 613 1.520 10000.000 0.000 0.670
37 111.00 1500.00 273 588 1.520 10000.000 0.000 0.670
38 114.00 1500.00 254 599 1.520 10000.000 0.000 0.670
39 117.00 1500.00 282 557 1.520 10000.000 0.000 0.670
40 120.00 1500.00 255 621 1.520 10000.000 0.000 0.670
41 123.00 1500.00 280 623 1.520 10000.000 0.000 0.670
42 126.00 1500.00 275 559 1.520 10000.000 0.000 0.670
43 129.00 1500.00 278 585 1.520 10000.000 0.000 0.670
44 132.00 1500.00 262 571 1.520 10000.000 0.000 0.670
45 135.00 1500.00 294 619 1.520 10000.000 0.000 0.670
46 138.00 1500.00 290 561 1.520 10000.000 0.000 0.670
47 141.00 1500.00 270 591 1.520 10000.000 0.000 0.670
48 144.00 1500.00 275 610 1.520 10000.000 0.000 0.670
49 147.00 1500.00 288 615 1.520 10000.000 0.000 0.670
50 150.00 1500.00 233 569 1.520 10000.000 0.000 0.670
51 153.00 1500.00 258 608 1.520 10000.000 0.000 0.670
52 156.00 1500.00 262 591 1.520 10000.000 0.000 0.670
53 159.00 1500.00 273 616 1.520 10000.000 0.000 0.670
54 162.00 1500.00 242 602 1.520 10000.000 0.000 0.670
55 165.00 1500.00 263 609 1.520 10000.000 0.000 0.670
56 168.00 1500.00 256 592 1.520 10000.000 0.000 0.670
57 171.00 1500.00 243 570 1.520 10000.000 0.000 0.670
58 174.00 1500.00 265 645 1.520 10000.000 0.000 0.670
59 177.00 1500.00 263 628 1.520 10000.000 0.000 0.670
60 180.00 1500.00 265 615 1.520 10000.000 0.000 0.670
61 183.00 1500.00 286 566 1.520 10000.000 0.000 0.670
62 186.00 1500.00 268 545 1.520 10000.000 0.000 0.670
63 189.00 1500.00 238 619 1.520 10000.000 0.000 0.670
64 192.00 1500.00 259 586 1.520 10000.000 0.000 0.670
65 195.00 1500.00 262 559 1.520 10000.000 0.000 0.670
66 198.00 1500.00 257 602 1.520 10000.000 0.000 0.670
67 201.00 1500.00 266 598 1.520 10000.000 0.000 0.670
68 204.00 1500.00 279 577 1.520 10000.000 0.000 0.670
69 207.00 1500.00 236 519 1.520 10000.000 0.000 0.670
70 210.00 1500.00 304 630 1.520 10000.000 0.000 0.670
71 213.00 1500.00 248 610 1.520 10000.000 0.000 0.670
72 216.00 1500.00 255 577 1.520 10000.000 0.000 0.670
73 219.00 1500.00 278 582 1.520 10000.000 0.000 0.670
74 222.00 1500.00 282 604 1.520 10000.000 0.000 0.670
75 225.00 1500.00 274 566 1.520 10000.000 0.000 0.670
76 228.00 1500.00 272 587 1.520 10000.000 0.000 0.670
77 231.00 1500.00 273 545 1.520 10000.000 0.000 0.670
78 234.00 1500.00 252 657 1.520 10000.000 0.000 0.670
79 237.00 1500.00 266 602 1.520 10000.000 0.000 0.670
80 240.00 1500.00 267 624 1.520 10000.000 0.000 0.670
81 243.00 1500.00 277 610 1.520 10000.000 0.000 0.670
82 246.00 1500.00 283 607 1.520 10000.000 0.000 0.670
83 249.00 1500.00 271 575 1.520 10000.000 0.000 0.670
84 252.00 1500.00 289 570 1.520 10000.000 0.000 0.670
85 255.00 1500.00 253 579 1.520 10000.000 0.000 0.670
86 258.00 1500.00 263 590 1.520 10000.000 0.000 0.670
87 261.00 1500.00 289 579 1.520 10000.000 0.000 0.670
88 264.00 1500.00 257 639 1.520 10000.000 0.000 0.670
89 267.00 1500.00 284 619 1.520 10000.000 0.000 0.670
90 270.00 1500.00 272 657 1.520 10000.000 0.000 0.670
91 273.00 1500.00 258 615 1.520 10000.000 0.000 0.670
92 276.00 1500.00 282 620 1.520 10000.000 0.000 0.670
93 279.00 1500.00 258 550 1.520 10000.000 0.000 0.670
94 282.00 1500.00 260 654 1.520 10000.000 0.000 0.670
95 285.00 1500.00 262 578 1.520 10000.000 0.000 0.670
96 288.00 1500.00 255 627 1.520 10000.000 0.000 0.670
97 291.00 1500.00 266 583 1.520 10000.000 0.000 0.670
98 294.00 1500.00 252 615 1.520 10000.000 0.000 0.670
99 297.00 1500.00 248 643 1.520 10000.000 0.000 0.670
100 300.00 1500.00 251 575 1.520 10000.000 0.000 0.670
101 303.00 1500.00 278 583 1.520 10000.000 0.000 0.670
102 306.00 1500.00 237 602 1.520 10000.000 0.000 0.670
103 309.00 1500.00 246 586 1.520 10000.000 0.000 0.670
104 312.00 1500.00 250 613 1.520 10000.000 0.000 0.670
105 315.00 1500.00 252 551 1.520 10000.000 0.000 0.670
106 318.00 1500.00 276 584 1.520 10000.000 0.000 0.670
107 321.00 1500.00 268 617 1.520 10000.000 0.000 0.670
108 324.00 1500.00 267 574 1.520 10000.000 0.000 0.670
109 327.00 1500.00 231 580 1.520 10000.000 0.000 0.670
110 330.00 1500.00 265 649 1.520 10000.000 0.000 0.670
111 333.00 1500.00 255 566 1.520 10000.000 0.000 0.670
112 336.00 1500.00 268 588 1.520 10000.000 0.000 0.670
113 339.00 1500.00 255 572 1.520 10000.000 0.000 0.670
114 342.00 1500.00 233 591 1.520 10000.000 0.000 0.670
115 345.00 1500.00 271 618 1.520 10000.000 0.000 0.670
116 348.00 1500.00 269 573 1.520 10000.000 0.000 0.670
117 351.00 1500.00 262 614 1.520 10000.000 0.000 0.670
118 354.00 1500.00 224 599 1.520 10000.000 0.000 0.670
119 357.00 1500.00 269 592 1.520 10000.000 0.000 0.670
120 360.00 1500.00 246 620 1.520 10000.000 0.000 0.670
121 363.00 1500.00 238 609 1.520 10000.000 0.000 0.670
122 366.00 1500.00 255 567 1.520 10000.000 0.000 0.670
123 369.00 1500.00 247 594 1.520 10000.000 0.000 0.670
124 372.00 1500.00 290 589 1.520 10000.000 0.000 0.670
125 375.00 1500.00 279 580 1.520 10000.000 0.000 0.670
126 378.00 1500.00 261 573 1.520 10000.000 0.000 0.670
127 381.00 1500.00 269 572 1.520 10000.000 0.000 0.670
128 384.00 1500.00 257 617 1.520 10000.000 0.000 0.670
129 387.00 1500.00 283 601 1.520 10000.000 0.000 0.670
130 390.00 1500.00 262 587 1.520 10000.000 0.000 0.670
131 393.00 1500.00 248 554 1.520 10000.000 0.000 0.670
132 396.00 1500.00 276 562 1.520 10000.000 0.000 0.670
133 399.00 1500.00 278 619 1.520 10000.000 0.000 0.670
134 402.00 1500.00 262 601 1.520 10000.000 0.000 0.670
135 405.00 1500.00 275 584 1.520 10000.000 0.000 0.670
136 408.00 1500.00 280 577 1.520 10000.000 0.000 0.670
137 411.00 1500.00 277 603 1.520 10000.000 0.000 0.670
138 414.00 1500.00 299 605 1.520 10000.000 0.000 0.670
139 417.00 1500.00 286 561 1.520 10000.000 0.000 0.670
140 420.00 1500.00 262 587 1.520 10000.000 0.000 0.670
141 423.00 1500.00 262 614 1.520 10000.000 0.000 0.670
142 426.00 1500.00 252 594 1.520 10000.000 0.000 0.670
143 429.00 1500.00 247 552 1.520 10000.000 0.000 0.670
144 432.00 1500.00 256 579 1.520 10000.000 0.000 0.670
