# BinNR microsec tot-time (s)  O-Beam AUX Ampl(V) f(Hz) phase(deg) chi(pos)
0 0.00 1500.01 89 116 1.520 10000.000 0.000 -1.000
1 3.00 1500.01 148 193 1.520 10000.000 0.000 -1.000
2 6.00 1500.01 155 168 1.520 10000.000 0.000 -1.000
3 9.00 1500.01 142 195 1.520 10000.000 0.000 -1.000
4 12.00 1500.01 170 194 1.520 10000.000 0.000 -1.000
5 15.00 1500.01 127 218 1.520 10000.000 0.000 -1.000
6 18.00 1500.01 157 197 1.520 10000.000 0.000 -1.000
7 21.00 1500.01 145 205 1.520 10000.000 0.000 -1.000
8 24.00 1500.01 147 222 1.520 10000.000 0.000 -1.000
9 27.00 1500.01 173 180 1.520 10000.000 0.000 -1.000
10 30.00 1500.01 145 214 1.520 10000.000 0.000 -1.000
11 33.00 1500.01 150 178 1.520 10000.000 0.000 -1.000
12 36.00 1500.01 144 209 1.520 10000.000 0.000 -1.000
13 39.00 1500.01 155 190 1.520 10000.000 0.000 -1.000
14 42.00 1500.01 156 194 1.520 10000.000 0.000 -1.000
15 45.00 1500.01 136 196 1.520 10000.000 0.000 -1.000
16 48.00 1500.01 139 199 1.520 10000.000 0.000 -1.000
17 51.00 1500.01 122 190 1.520 10000.000 0.000 -1.000
18 54.00 1500.01 165 185 1.520 10000.000 0.000 -1.000
19 57.00 1500.01 140 178 1.520 10000.000 0.000 -1.000
20 60.00 1500.01 162 204 1.520 10000.000 0.000 -1.000
21 63.00 1500.01 141 178 1.520 10000.000 0.000 -1.000
22 66.00 1500.01 154 214 1.520 10000.000 0.000 -1.000
23 69.00 1500.01 144 211 1.520 10000.000 0.000 -1.000
24 72.00 1500.01 156 175 1.520 10000.000 0.000 -1.000
25 75.00 1500.01 146 188 1.520 10000.000 0.000 -1.000
26 78.00 1500.01 160 215 1.520 10000.000 0.000 -1.000
27 81.00 1500.01 162 171 1.520 10000.000 0.000 -1.000
28 84.00 1500.01 164 191 1.520 10000.000 0.000 -1.000
29 87.00 1500.01 166 175 1.520 10000.000 0.000 -1.000
30 90.00 1500.01 173 205 1.520 10000.000 0.000 -1.000
31 93.00 1500.01 151 191 1.520 10000.000 0.000 -1.000
32 96.00 1500.01 137 202 1.520 10000.000 0.000 -1.000
33 99.00 1500.01 145 194 1.520 10000.000 0.000 -1.000
34 102.00 1500.01 155 197 1.520 10000.000 0.000 -1.000
35 105.00 1500.01 145 201 1.520 10000.000 0.000 -1.000
36 108.00 1500.01 167 200 1.520 10000.000 0.000 -1.000
37 111.00 1500.01 161 191 1.520 10000.000 0.000 -1.000
38 114.00 1500.01 152 188 1.520 10000.000 0.000 -1.000
39 117.00 1500.01 151 192 1.520 10000.000 0.000 -1.000
40 120.00 1500.01 127 219 1.520 10000.000 0.000 -1.000
41 123.00 1500.01 157 196 1.520 10000.000 0.000 -1.000
42 126.00 1500.01 146 196 1.520 10000.000 0.000 -1.000
43 129.00 1500.01 142 200 1.520 10000.000 0.000 -1.000
44 132.00 1500.01 162 191 1.520 10000.000 0.000 -1.000
45 135.00 1500.01 157 183 1.520 10000.000 0.000 -1.000
46 138.00 1500.01 151 188 1.520 10000.000 0.000 -1.000
47 141.00 1500.01 146 184 1.520 10000.000 0.000 -1.000
48 144.00 1500.01 152 197 1.520 10000.000 0.000 -1.000
49 147.00 1500.01 131 198 1.520 10000.000 0.000 -1.000
50 150.00 1500.01 154 186 1.520 10000.000 0.000 -1.000
51 153.00 1500.01 168 215 1.520 10000.000 0.000 -1.000
52 156.00 1500.01 132 211 1.520 10000.000 0.000 -1.000
53 159.00 1500.01 162 202 1.520 10000.000 0.000 -1.000
54 162.00 1500.01 147 197 1.520 10000.000 0.000 -1.000
55 165.00 1500.01 142 179 1.520 10000.000 0.000 -1.000
56 168.00 1500.01 162 185 1.520 10000.000 0.000 -1.000
57 171.00 1500.01 149 192 1.520 10000.000 0.000 -1.000
58 174.00 1500.01 149 176 1.520 10000.000 0.000 -1.000
59 177.00 1500.01 137 184 1.520 10000.000 0.000 -1.000
60 180.00 1500.01 156 196 1.520 10000.000 0.000 -1.000
61 183.00 1500.01 127 218 1.520 10000.000 0.000 -1.000
62 186.00 1500.01 140 177 1.520 10000.000 0.000 -1.000
63 189.00 1500.01 126 204 1.520 10000.000 0.000 -1.000
64 192.00 1500.01 153 200 1.520 10000.000 0.000 -1.000
65 195.00 1500.01 141 205 1.520 10000.000 0.000 -1.000
66 198.00 1500.01 171 219 1.520 10000.000 0.000 -1.000
67 201.00 1500.01 166 187 1.520 10000.000 0.000 -1.000
68 204.00 1500.01 173 191 1.520 10000.000 0.000 -1.000
69 207.00 1500.01 163 196 1.520 10000.000 0.000 -1.000
70 210.00 1500.01 140 188 1.520 10000.000 0.000 -1.000
71 213.00 1500.01 145 211 1.520 10000.000 0.000 -1.000
72 216.00 1500.01 135 233 1.520 10000.000 0.000 -1.000
73 219.00 1500.01 150 182 1.520 10000.000 0.000 -1.000
74 222.00 1500.01 175 213 1.520 10000.000 0.000 -1.000
75 225.00 1500.01 145 206 1.520 10000.000 0.000 -1.000
76 228.00 1500.01 166 216 1.520 10000.000 0.000 -1.000
77 231.00 1500.01 155 201 1.520 10000.000 0.000 -1.000
78 234.00 1500.01 171 205 1.520 10000.000 0.000 -1.000
79 237.00 1500.01 171 183 1.520 10000.000 0.000 -1.000
80 240.00 1500.01 173 178 1.520 10000.000 0.000 -1.000
81 243.00 1500.01 176 196 1.520 10000.000 0.000 -1.000
82 246.00 1500.01 157 189 1.520 10000.000 0.000 -1.000
83 249.00 1500.01 149 199 1.520 10000.000 0.000 -1.000
84 252.00 1500.01 143 208 1.520 10000.000 0.000 -1.000
85 255.00 1500.01 170 204 1.520 10000.000 0.000 -1.000
86 258.00 1500.01 166 198 1.520 10000.000 0.000 -1.000
87 261.00 1500.01 133 221 1.520 10000.000 0.000 -1.000
88 264.00 1500.01 155 216 1.520 10000.000 0.000 -1.000
89 267.00 1500.01 134 197 1.520 10000.000 0.000 -1.000
90 270.00 1500.01 173 200 1.520 10000.000 0.000 -1.000
91 273.00 1500.01 147 195 1.520 10000.000 0.000 -1.000
92 276.00 1500.01 141 185 1.520 10000.000 0.000 -1.000
93 279.00 1500.01 157 206 1.520 10000.000 0.000 -1.000
94 282.00 1500.01 167 184 1.520 10000.000 0.000 -1.000
95 285.00 1500.01 130 217 1.520 10000.000 0.000 -1.000
96 288.00 1500.01 179 170 1.520 10000.000 0.000 -1.000
97 291.00 1500.01 148 207 1.520 10000.000 0.000 -1.000
98 294.00 1500.01 165 199 1.520 10000.000 0.000 -1.000
99 297.00 1500.01 162 200 1.520 10000.000 0.000 -1.000
100 300.00 1500.01 135 217 1.520 10000.000 0.000 -1.000
101 303.00 1500.01 139 199 1.520 10000.000 0.000 -1.000
102 306.00 1500.01 159 208 1.520 10000.000 0.000 -1.000
103 309.00 1500.01 137 190 1.520 10000.000 0.000 -1.000
104 312.00 1500.01 156 208 1.520 10000.000 0.000 -1.000
105 315.00 1500.01 156 172 1.520 10000.000 0.000 -1.000
106 318.00 1500.01 137 232 1.520 10000.000 0.000 -1.000
107 321.00 1500.01 161 196 1.520 10000.000 0.000 -1.000
108 324.00 1500.01 136 211 1.520 10000.000 0.000 -1.000
109 327.00 1500.01 145 208 1.520 10000.000 0.000 -1.000
110 330.00 1500.01 177 167 1.520 10000.000 0.000 -1.000
111 333.00 1500.01 144 204 1.520 10000.000 0.000 -1.000
112 336.00 1500.01 161 184 1.520 10000.000 0.000 -1.000
113 339.00 1500.01 126 186 1.520 10000.000 0.000 -1.000
114 342.00 1500.01 170 211 1.520 10000.000 0.000 -1.000
115 345.00 1500.01 130 194 1.520 10000.000 0.000 -1.000
116 348.00 1500.01 135 193 1.520 10000.000 0.000 -1.000
117 351.00 1500.01 160 200 1.520 10000.000 0.000 -1.000
118 354.00 1500.01 156 202 1.520 10000.000 0.000 -1.000
119 357.00 1500.01 138 175 1.520 10000.000 0.000 -1.000
120 360.00 1500.01 157 181 1.520 10000.000 0.000 -1.000
121 363.00 1500.01 163 196 1.520 10000.000 0.000 -1.000
122 366.00 1500.01 150 198 1.520 10000.000 0.000 -1.000
123 369.00 1500.01 139 186 1.520 10000.000 0.000 -1.000
124 372.00 1500.01 156 217 1.520 10000.000 0.000 -1.000
125 375.00 1500.01 158 203 1.520 10000.000 0.000 -1.000
126 378.00 1500.01 170 192 1.520 10000.000 0.000 -1.000
127 381.00 1500.01 153 203 1.520 10000.000 0.000 -1.000
128 384.00 1500.01 185 205 1.520 10000.000 0.000 -1.000
129 387.00 1500.01 144 184 1.520 10000.000 0.000 -1.000
130 390.00 1500.01 169 215 1.520 10000.000 0.000 -1.000
131 393.00 1500.01 151 190 1.520 10000.000 0.000 -1.000
132 396.00 1500.01 151 206 1.520 10000.000 0.000 -1.000
133 399.00 1500.01 160 181 1.520 10000.000 0.000 -1.000
134 402.00 1500.01 134 197 1.520 10000.000 0.000 -1.000
135 405.00 1500.01 161 176 1.520 10000.000 0.000 -1.000
136 408.00 1500.01 158 201 1.520 10000.000 0.000 -1.000
137 411.00 1500.01 144 195 1.520 10000.000 0.000 -1.000
138 414.00 1500.01 168 214 1.520 10000.000 0.000 -1.000
139 417.00 1500.01 138 235 1.520 10000.000 0.000 -1.000
140 420.00 1500.01 146 190 1.520 10000.000 0.000 -1.000
141 423.00 1500.01 151 202 1.520 10000.000 0.000 -1.000
142 426.00 1500.01 147 174 1.520 10000.000 0.000 -1.000
143 429.00 1500.01 140 204 1.520 10000.000 0.000 -1.000
144 432.00 1500.01 167 201 1.520 10000.000 0.000 -1.000
