# BinNR microsec tot-time (s)  O-Beam AUX Ampl(V) f(Hz) phase(deg) chi(pos)
0 0.00 1500.00 119 319 1.520 10000.000 0.000 -0.505
1 3.00 1500.00 245 607 1.520 10000.000 0.000 -0.505
2 6.00 1500.00 262 630 1.520 10000.000 0.000 -0.505
3 9.00 1500.00 211 588 1.520 10000.000 0.000 -0.505
4 12.00 1500.00 257 648 1.520 10000.000 0.000 -0.505
5 15.00 1500.00 251 592 1.520 10000.000 0.000 -0.505
6 18.00 1500.00 247 647 1.520 10000.000 0.000 -0.505
7 21.00 1500.00 235 621 1.520 10000.000 0.000 -0.505
8 24.00 1500.00 244 626 1.520 10000.000 0.000 -0.505
9 27.00 1500.00 237 610 1.520 10000.000 0.000 -0.505
10 30.00 1500.00 222 690 1.520 10000.000 0.000 -0.505
11 33.00 1500.00 227 643 1.520 10000.000 0.000 -0.505
12 36.00 1500.00 217 630 1.520 10000.000 0.000 -0.505
13 39.00 1500.00 243 594 1.520 10000.000 0.000 -0.505
14 42.00 1500.00 221 633 1.520 10000.000 0.000 -0.505
15 45.00 1500.00 248 628 1.520 10000.000 0.000 -0.505
16 48.00 1500.00 223 637 1.520 10000.000 0.000 -0.505
17 51.00 1500.00 271 641 1.520 10000.000 0.000 -0.505
18 54.00 1500.00 258 640 1.520 10000.000 0.000 -0.505
19 57.00 1500.00 233 603 1.520 10000.000 0.000 -0.505
20 60.00 1500.00 247 602 1.520 10000.000 0.000 -0.505
21 63.00 1500.00 234 607 1.520 10000.000 0.000 -0.505
22 66.00 1500.00 223 668 1.520 10000.000 0.000 -0.505
23 69.00 1500.00 208 639 1.520 10000.000 0.000 -0.505
24 72.00 1500.00 254 640 1.520 10000.000 0.000 -0.505
25 75.00 1500.00 230 599 1.520 10000.000 0.000 -0.505
26 78.00 1500.00 230 606 1.520 10000.000 0.000 -0.505
27 81.00 1500.00 256 643 1.520 10000.000 0.000 -0.505
28 84.00 1500.00 231 609 1.520 10000.000 0.000 -0.505
29 87.00 1500.00 202 637 1.520 10000.000 0.000 -0.505
30 90.00 1500.00 239 563 1.520 10000.000 0.000 -0.505
31 93.00 1500.00 234 646 1.520 10000.000 0.000 -0.505
32 96.00 1500.00 220 678 1.520 10000.000 0.000 -0.505
33 99.00 1500.00 224 647 1.520 10000.000 0.000 -0.505
34 102.00 1500.00 236 621 1.520 10000.000 0.000 -0.505
35 105.00 1500.00 219 643 1.520 10000.000 0.000 -0.505
36 108.00 1500.00 240 627 1.520 10000.000 0.000 -0.505
37 111.00 1500.00 192 597 1.520 10000.000 0.000 -0.505
38 114.00 1500.00 231 598 1.520 10000.000 0.000 -0.505
39 117.00 1500.00 246 632 1.520 10000.000 0.000 -0.505
40 120.00 1500.00 248 608 1.520 10000.000 0.000 -0.505
41 123.00 1500.00 207 634 1.520 10000.000 0.000 -0.505
42 126.00 1500.00 215 589 1.520 10000.000 0.000 -0.505
43 129.00 1500.00 238 587 1.520 10000.000 0.000 -0.505
44 132.00 1500.00 223 634 1.520 10000.000 0.000 -0.505
45 135.00 1500.00 251 577 1.520 10000.000 0.000 -0.505
46 138.00 1500.00 208 621 1.520 10000.000 0.000 -0.505
47 141.00 1500.00 230 632 1.520 10000.000 0.000 -0.505
48 144.00 1500.00 241 617 1.520 10000.000 0.000 -0.505
49 147.00 1500.00 228 587 1.520 10000.000 0.000 -0.505
50 150.00 1500.00 248 595 1.520 10000.000 0.000 -0.505
51 153.00 1500.00 224 587 1.520 10000.000 0.000 -0.505
52 156.00 1500.00 201 672 1.520 10000.000 0.000 -0.505
53 159.00 1500.00 225 586 1.520 10000.000 0.000 -0.505
54 162.00 1500.00 226 621 1.520 10000.000 0.000 -0.505
55 165.00 1500.00 192 596 1.520 10000.000 0.000 -0.505
56 168.00 1500.00 228 606 1.520 10000.000 0.000 -0.505
57 171.00 1500.00 220 643 1.520 10000.000 0.000 -0.505
58 174.00 1500.00 244 648 1.520 10000.000 0.000 -0.505
59 177.00 1500.00 221 630 1.520 10000.000 0.000 -0.505
60 180.00 1500.00 241 660 1.520 10000.000 0.000 -0.505
61 183.00 1500.00 241 603 1.520 10000.000 0.000 -0.505
62 186.00 1500.00 208 603 1.520 10000.000 0.000 -0.505
63 189.00 1500.00 228 626 1.520 10000.000 0.000 -0.505
64 192.00 1500.00 231 614 1.520 10000.000 0.000 -0.505
65 195.00 1500.00 215 649 1.520 10000.000 0.000 -0.505
66 198.00 1500.00 238 590 1.520 10000.000 0.000 -0.505
67 201.00 1500.00 239 625 1.520 10000.000 0.000 -0.505
68 204.00 1500.00 240 620 1.520 10000.000 0.000 -0.505
69 207.00 1500.00 209 630 1.520 10000.000 0.000 -0.505
70 210.00 1500.00 212 615 1.520 10000.000 0.000 -0.505
71 213.00 1500.00 245 636 1.520 10000.000 0.000 -0.505
72 216.00 1500.00 244 570 1.520 10000.000 0.000 -0.505
73 219.00 1500.00 238 629 1.520 10000.000 0.000 -0.505
74 222.00 1500.00 242 603 1.520 10000.000 0.000 -0.505
75 225.00 1500.00 205 626 1.520 10000.000 0.000 -0.505
76 228.00 1500.00 231 639 1.520 10000.000 0.000 -0.505
77 231.00 1500.00 251 641 1.520 10000.000 0.000 -0.505
78 234.00 1500.00 248 597 1.520 10000.000 0.000 -0.505
79 237.00 1500.00 247 597 1.520 10000.000 0.000 -0.505
80 240.00 1500.00 240 614 1.520 10000.000 0.000 -0.505
81 243.00 1500.00 214 599 1.520 10000.000 0.000 -0.505
82 246.00 1500.00 245 638 1.520 10000.000 0.000 -0.505
83 249.00 1500.00 236 635 1.520 10000.000 0.000 -0.505
84 252.00 1500.00 248 623 1.520 10000.000 0.000 -0.505
85 255.00 1500.00 247 572 1.520 10000.000 0.000 -0.505
86 258.00 1500.00 258 624 1.520 10000.000 0.000 -0.505
87 261.00 1500.00 229 636 1.520 10000.000 0.000 -0.505
88 264.00 1500.00 245 621 1.520 10000.000 0.000 -0.505
89 267.00 1500.00 222 599 1.520 10000.000 0.000 -0.505
90 270.00 1500.00 207 664 1.520 10000.000 0.000 -0.505
91 273.00 1500.00 245 663 1.520 10000.000 0.000 -0.505
92 276.00 1500.00 242 641 1.520 10000.000 0.000 -0.505
93 279.00 1500.00 224 646 1.520 10000.000 0.000 -0.505
94 282.00 1500.00 225 620 1.520 10000.000 0.000 -0.505
95 285.00 1500.00 236 618 1.520 10000.000 0.000 -0.505
96 288.00 1500.00 234 628 1.520 10000.000 0.000 -0.505
97 291.00 1500.00 224 596 1.520 10000.000 0.000 -0.505
98 294.00 1500.00 233 626 1.520 10000.000 0.000 -0.505
99 297.00 1500.00 213 600 1.520 10000.000 0.000 -0.505
100 300.00 1500.00 256 577 1.520 10000.000 0.000 -0.505
101 303.00 1500.00 201 607 1.520 10000.000 0.000 -0.505
102 306.00 1500.00 227 641 1.520 10000.000 0.000 -0.505
103 309.00 1500.00 217 621 1.520 10000.000 0.000 -0.505
104 312.00 1500.00 244 624 1.520 10000.000 0.000 -0.505
105 315.00 1500.00 216 627 1.520 10000.000 0.000 -0.505
106 318.00 1500.00 238 603 1.520 10000.000 0.000 -0.505
107 321.00 1500.00 245 628 1.520 10000.000 0.000 -0.505
108 324.00 1500.00 224 594 1.520 10000.000 0.000 -0.505
109 327.00 1500.00 243 652 1.520 10000.000 0.000 -0.505
110 330.00 1500.00 229 642 1.520 10000.000 0.000 -0.505
111 333.00 1500.00 239 627 1.520 10000.000 0.000 -0.505
112 336.00 1500.00 239 628 1.520 10000.000 0.000 -0.505
113 339.00 1500.00 228 615 1.520 10000.000 0.000 -0.505
114 342.00 1500.00 267 608 1.520 10000.000 0.000 -0.505
115 345.00 1500.00 234 620 1.520 10000.000 0.000 -0.505
116 348.00 1500.00 225 605 1.520 10000.000 0.000 -0.505
117 351.00 1500.00 224 618 1.520 10000.000 0.000 -0.505
118 354.00 1500.00 223 642 1.520 10000.000 0.000 -0.505
119 357.00 1500.00 219 578 1.520 10000.000 0.000 -0.505
120 360.00 1500.00 246 647 1.520 10000.000 0.000 -0.505
121 363.00 1500.00 234 638 1.520 10000.000 0.000 -0.505
122 366.00 1500.00 231 647 1.520 10000.000 0.000 -0.505
123 369.00 1500.00 255 618 1.520 10000.000 0.000 -0.505
124 372.00 1500.00 242 616 1.520 10000.000 0.000 -0.505
125 375.00 1500.00 232 617 1.520 10000.000 0.000 -0.505
126 378.00 1500.00 247 638 1.520 10000.000 0.000 -0.505
127 381.00 1500.00 243 544 1.520 10000.000 0.000 -0.505
128 384.00 1500.00 229 635 1.520 10000.000 0.000 -0.505
129 387.00 1500.00 233 537 1.520 10000.000 0.000 -0.505
130 390.00 1500.00 239 624 1.520 10000.000 0.000 -0.505
131 393.00 1500.00 230 620 1.520 10000.000 0.000 -0.505
132 396.00 1500.00 239 646 1.520 10000.000 0.000 -0.505
133 399.00 1500.00 228 638 1.520 10000.000 0.000 -0.505
134 402.00 1500.00 250 648 1.520 10000.000 0.000 -0.505
135 405.00 1500.00 225 630 1.520 10000.000 0.000 -0.505
136 408.00 1500.00 208 621 1.520 10000.000 0.000 -0.505
137 411.00 1500.00 251 597 1.520 10000.000 0.000 -0.505
138 414.00 1500.00 230 589 1.520 10000.000 0.000 -0.505
139 417.00 1500.00 218 639 1.520 10000.000 0.000 -0.505
140 420.00 1500.00 233 623 1.520 10000.000 0.000 -0.505
141 423.00 1500.00 245 599 1.520 10000.000 0.000 -0.505
142 426.00 1500.00 241 591 1.520 10000.000 0.000 -0.505
143 429.00 1500.00 233 603 1.520 10000.000 0.000 -0.505
144 432.00 1500.00 243 636 1.520 10000.000 0.000 -0.505
