# BinNR microsec tot-time (s)  O-Beam AUX Ampl(V) f(Hz) phase(deg) chi(pos)
0 0.00 1500.01 118 242 1.520 10000.000 0.000 -1.329
1 3.00 1500.01 228 500 1.520 10000.000 0.000 -1.329
2 6.00 1500.01 219 454 1.520 10000.000 0.000 -1.329
3 9.00 1500.01 233 528 1.520 10000.000 0.000 -1.329
4 12.00 1500.01 239 472 1.520 10000.000 0.000 -1.329
5 15.00 1500.01 229 480 1.520 10000.000 0.000 -1.329
6 18.00 1500.01 223 522 1.520 10000.000 0.000 -1.329
7 21.00 1500.01 214 428 1.520 10000.000 0.000 -1.329
8 24.00 1500.01 232 462 1.520 10000.000 0.000 -1.329
9 27.00 1500.01 221 452 1.520 10000.000 0.000 -1.329
10 30.00 1500.01 245 477 1.520 10000.000 0.000 -1.329
11 33.00 1500.01 249 494 1.520 10000.000 0.000 -1.329
12 36.00 1500.01 247 492 1.520 10000.000 0.000 -1.329
13 39.00 1500.01 236 484 1.520 10000.000 0.000 -1.329
14 42.00 1500.01 214 468 1.520 10000.000 0.000 -1.329
15 45.00 1500.01 224 469 1.520 10000.000 0.000 -1.329
16 48.00 1500.01 233 477 1.520 10000.000 0.000 -1.329
17 51.00 1500.01 229 469 1.520 10000.000 0.000 -1.329
18 54.00 1500.01 230 483 1.520 10000.000 0.000 -1.329
19 57.00 1500.01 234 497 1.520 10000.000 0.000 -1.329
20 60.00 1500.01 262 479 1.520 10000.000 0.000 -1.329
21 63.00 1500.01 225 444 1.520 10000.000 0.000 -1.329
22 66.00 1500.01 206 516 1.520 10000.000 0.000 -1.329
23 69.00 1500.01 208 449 1.520 10000.000 0.000 -1.329
24 72.00 1500.01 255 505 1.520 10000.000 0.000 -1.329
25 75.00 1500.01 211 465 1.520 10000.000 0.000 -1.329
26 78.00 1500.01 237 467 1.520 10000.000 0.000 -1.329
27 81.00 1500.01 221 489 1.520 10000.000 0.000 -1.329
28 84.00 1500.01 249 484 1.520 10000.000 0.000 -1.329
29 87.00 1500.01 244 422 1.520 10000.000 0.000 -1.329
30 90.00 1500.01 241 487 1.520 10000.000 0.000 -1.329
31 93.00 1500.01 226 510 1.520 10000.000 0.000 -1.329
32 96.00 1500.01 213 505 1.520 10000.000 0.000 -1.329
33 99.00 1500.01 244 499 1.520 10000.000 0.000 -1.329
34 102.00 1500.01 215 488 1.520 10000.000 0.000 -1.329
35 105.00 1500.01 229 499 1.520 10000.000 0.000 -1.329
36 108.00 1500.01 243 480 1.520 10000.000 0.000 -1.329
37 111.00 1500.01 206 498 1.520 10000.000 0.000 -1.329
38 114.00 1500.01 224 475 1.520 10000.000 0.000 -1.329
39 117.00 1500.01 244 516 1.520 10000.000 0.000 -1.329
40 120.00 1500.01 228 525 1.520 10000.000 0.000 -1.329
41 123.00 1500.01 227 475 1.520 10000.000 0.000 -1.329
42 126.00 1500.01 249 447 1.520 10000.000 0.000 -1.329
43 129.00 1500.01 221 472 1.520 10000.000 0.000 -1.329
44 132.00 1500.01 227 456 1.520 10000.000 0.000 -1.329
45 135.00 1500.01 239 483 1.520 10000.000 0.000 -1.329
46 138.00 1500.01 235 476 1.520 10000.000 0.000 -1.329
47 141.00 1500.01 239 488 1.520 10000.000 0.000 -1.329
48 144.00 1500.01 205 514 1.520 10000.000 0.000 -1.329
49 147.00 1500.01 245 440 1.520 10000.000 0.000 -1.329
50 150.00 1500.01 257 492 1.520 10000.000 0.000 -1.329
51 153.00 1500.01 218 509 1.520 10000.000 0.000 -1.329
52 156.00 1500.01 238 462 1.520 10000.000 0.000 -1.329
53 159.00 1500.01 257 459 1.520 10000.000 0.000 -1.329
54 162.00 1500.01 246 546 1.520 10000.000 0.000 -1.329
55 165.00 1500.01 247 466 1.520 10000.000 0.000 -1.329
56 168.00 1500.01 208 472 1.520 10000.000 0.000 -1.329
57 171.00 1500.01 220 450 1.520 10000.000 0.000 -1.329
58 174.00 1500.01 235 504 1.520 10000.000 0.000 -1.329
59 177.00 1500.01 220 476 1.520 10000.000 0.000 -1.329
60 180.00 1500.01 214 494 1.520 10000.000 0.000 -1.329
61 183.00 1500.01 231 444 1.520 10000.000 0.000 -1.329
62 186.00 1500.01 226 484 1.520 10000.000 0.000 -1.329
63 189.00 1500.01 225 459 1.520 10000.000 0.000 -1.329
64 192.00 1500.01 249 432 1.520 10000.000 0.000 -1.329
65 195.00 1500.01 227 456 1.520 10000.000 0.000 -1.329
66 198.00 1500.01 209 461 1.520 10000.000 0.000 -1.329
67 201.00 1500.01 224 463 1.520 10000.000 0.000 -1.329
68 204.00 1500.01 236 481 1.520 10000.000 0.000 -1.329
69 207.00 1500.01 239 468 1.520 10000.000 0.000 -1.329
70 210.00 1500.01 249 457 1.520 10000.000 0.000 -1.329
71 213.00 1500.01 232 469 1.520 10000.000 0.000 -1.329
72 216.00 1500.01 261 505 1.520 10000.000 0.000 -1.329
73 219.00 1500.01 232 474 1.520 10000.000 0.000 -1.329
74 222.00 1500.01 251 496 1.520 10000.000 0.000 -1.329
75 225.00 1500.01 233 490 1.520 10000.000 0.000 -1.329
76 228.00 1500.01 226 488 1.520 10000.000 0.000 -1.329
77 231.00 1500.01 244 521 1.520 10000.000 0.000 -1.329
78 234.00 1500.01 248 492 1.520 10000.000 0.000 -1.329
79 237.00 1500.01 230 493 1.520 10000.000 0.000 -1.329
80 240.00 1500.01 228 498 1.520 10000.000 0.000 -1.329
81 243.00 1500.01 230 467 1.520 10000.000 0.000 -1.329
82 246.00 1500.01 221 470 1.520 10000.000 0.000 -1.329
83 249.00 1500.01 236 467 1.520 10000.000 0.000 -1.329
84 252.00 1500.01 242 466 1.520 10000.000 0.000 -1.329
85 255.00 1500.01 219 447 1.520 10000.000 0.000 -1.329
86 258.00 1500.01 248 498 1.520 10000.000 0.000 -1.329
87 261.00 1500.01 272 496 1.520 10000.000 0.000 -1.329
88 264.00 1500.01 242 534 1.520 10000.000 0.000 -1.329
89 267.00 1500.01 216 486 1.520 10000.000 0.000 -1.329
90 270.00 1500.01 208 549 1.520 10000.000 0.000 -1.329
91 273.00 1500.01 238 510 1.520 10000.000 0.000 -1.329
92 276.00 1500.01 260 543 1.520 10000.000 0.000 -1.329
93 279.00 1500.01 227 429 1.520 10000.000 0.000 -1.329
94 282.00 1500.01 217 499 1.520 10000.000 0.000 -1.329
95 285.00 1500.01 236 481 1.520 10000.000 0.000 -1.329
96 288.00 1500.01 259 534 1.520 10000.000 0.000 -1.329
97 291.00 1500.01 205 456 1.520 10000.000 0.000 -1.329
98 294.00 1500.01 229 480 1.520 10000.000 0.000 -1.329
99 297.00 1500.01 223 473 1.520 10000.000 0.000 -1.329
100 300.00 1500.01 224 468 1.520 10000.000 0.000 -1.329
101 303.00 1500.01 205 480 1.520 10000.000 0.000 -1.329
102 306.00 1500.01 224 458 1.520 10000.000 0.000 -1.329
103 309.00 1500.01 271 484 1.520 10000.000 0.000 -1.329
104 312.00 1500.01 240 473 1.520 10000.000 0.000 -1.329
105 315.00 1500.01 252 464 1.520 10000.000 0.000 -1.329
106 318.00 1500.01 212 470 1.520 10000.000 0.000 -1.329
107 321.00 1500.01 231 463 1.520 10000.000 0.000 -1.329
108 324.00 1500.01 246 473 1.520 10000.000 0.000 -1.329
109 327.00 1500.01 239 475 1.520 10000.000 0.000 -1.329
110 330.00 1500.01 220 442 1.520 10000.000 0.000 -1.329
111 333.00 1500.01 226 463 1.520 10000.000 0.000 -1.329
112 336.00 1500.01 264 475 1.520 10000.000 0.000 -1.329
113 339.00 1500.01 250 447 1.520 10000.000 0.000 -1.329
114 342.00 1500.01 244 479 1.520 10000.000 0.000 -1.329
115 345.00 1500.01 223 505 1.520 10000.000 0.000 -1.329
116 348.00 1500.01 234 513 1.520 10000.000 0.000 -1.329
117 351.00 1500.01 239 483 1.520 10000.000 0.000 -1.329
118 354.00 1500.01 230 466 1.520 10000.000 0.000 -1.329
119 357.00 1500.01 224 504 1.520 10000.000 0.000 -1.329
120 360.00 1500.01 261 525 1.520 10000.000 0.000 -1.329
121 363.00 1500.01 214 450 1.520 10000.000 0.000 -1.329
122 366.00 1500.01 222 478 1.520 10000.000 0.000 -1.329
123 369.00 1500.01 229 471 1.520 10000.000 0.000 -1.329
124 372.00 1500.01 228 521 1.520 10000.000 0.000 -1.329
125 375.00 1500.01 202 492 1.520 10000.000 0.000 -1.329
126 378.00 1500.01 247 523 1.520 10000.000 0.000 -1.329
127 381.00 1500.01 233 430 1.520 10000.000 0.000 -1.329
128 384.00 1500.01 240 484 1.520 10000.000 0.000 -1.329
129 387.00 1500.01 238 449 1.520 10000.000 0.000 -1.329
130 390.00 1500.01 226 481 1.520 10000.000 0.000 -1.329
131 393.00 1500.01 223 466 1.520 10000.000 0.000 -1.329
132 396.00 1500.01 235 487 1.520 10000.000 0.000 -1.329
133 399.00 1500.01 256 478 1.520 10000.000 0.000 -1.329
134 402.00 1500.01 231 477 1.520 10000.000 0.000 -1.329
135 405.00 1500.01 233 488 1.520 10000.000 0.000 -1.329
136 408.00 1500.01 214 543 1.520 10000.000 0.000 -1.329
137 411.00 1500.01 241 463 1.520 10000.000 0.000 -1.329
138 414.00 1500.01 229 470 1.520 10000.000 0.000 -1.329
139 417.00 1500.01 259 439 1.520 10000.000 0.000 -1.329
140 420.00 1500.01 240 466 1.520 10000.000 0.000 -1.329
141 423.00 1500.01 229 511 1.520 10000.000 0.000 -1.329
142 426.00 1500.01 238 490 1.520 10000.000 0.000 -1.329
143 429.00 1500.01 254 505 1.520 10000.000 0.000 -1.329
144 432.00 1500.01 193 478 1.520 10000.000 0.000 -1.329
