# BinNR microsec tot-time (s)  O-Beam AUX Ampl(V) f(Hz) phase(deg) chi(pos)
0 0.00 1500.00 184 563 1.520 10000.000 0.000 0.165
1 3.00 1500.00 399 1190 1.520 10000.000 0.000 0.165
2 6.00 1500.00 404 1184 1.520 10000.000 0.000 0.165
3 9.00 1500.00 401 1169 1.520 10000.000 0.000 0.165
4 12.00 1500.00 381 1182 1.520 10000.000 0.000 0.165
5 15.00 1500.00 425 1057 1.520 10000.000 0.000 0.165
6 18.00 1500.00 386 1160 1.520 10000.000 0.000 0.165
7 21.00 1500.00 384 1232 1.520 10000.000 0.000 0.165
8 24.00 1500.00 422 1135 1.520 10000.000 0.000 0.165
9 27.00 1500.00 383 1141 1.520 10000.000 0.000 0.165
10 30.00 1500.00 384 1167 1.520 10000.000 0.000 0.165
11 33.00 1500.00 353 1077 1.520 10000.000 0.000 0.165
12 36.00 1500.00 406 1210 1.520 10000.000 0.000 0.165
13 39.00 1500.00 411 1151 1.520 10000.000 0.000 0.165
14 42.00 1500.00 382 1212 1.520 10000.000 0.000 0.165
15 45.00 1500.00 381 1167 1.520 10000.000 0.000 0.165
16 48.00 1500.00 413 1196 1.520 10000.000 0.000 0.165
17 51.00 1500.00 389 1113 1.520 10000.000 0.000 0.165
18 54.00 1500.00 375 1177 1.520 10000.000 0.000 0.165
19 57.00 1500.00 389 1205 1.520 10000.000 0.000 0.165
20 60.00 1500.00 370 1190 1.520 10000.000 0.000 0.165
21 63.00 1500.00 406 1160 1.520 10000.000 0.000 0.165
22 66.00 1500.00 387 1227 1.520 10000.000 0.000 0.165
23 69.00 1500.00 373 1136 1.520 10000.000 0.000 0.165
24 72.00 1500.00 388 1222 1.520 10000.000 0.000 0.165
25 75.00 1500.00 399 1222 1.520 10000.000 0.000 0.165
26 78.00 1500.00 388 1230 1.520 10000.000 0.000 0.165
27 81.00 1500.00 389 1155 1.520 10000.000 0.000 0.165
28 84.00 1500.00 380 1166 1.520 10000.000 0.000 0.165
29 87.00 1500.00 365 1146 1.520 10000.000 0.000 0.165
30 90.00 1500.00 386 1174 1.520 10000.000 0.000 0.165
31 93.00 1500.00 413 1189 1.520 10000.000 0.000 0.165
32 96.00 1500.00 390 1175 1.520 10000.000 0.000 0.165
33 99.00 1500.00 376 1192 1.520 10000.000 0.000 0.165
34 102.00 1500.00 412 1216 1.520 10000.000 0.000 0.165
35 105.00 1500.00 395 1208 1.520 10000.000 0.000 0.165
36 108.00 1500.00 381 1241 1.520 10000.000 0.000 0.165
37 111.00 1500.00 366 1210 1.520 10000.000 0.000 0.165
38 114.00 1500.00 387 1199 1.520 10000.000 0.000 0.165
39 117.00 1500.00 396 1197 1.520 10000.000 0.000 0.165
40 120.00 1500.00 400 1205 1.520 10000.000 0.000 0.165
41 123.00 1500.00 393 1120 1.520 10000.000 0.000 0.165
42 126.00 1500.00 399 1230 1.520 10000.000 0.000 0.165
43 129.00 1500.00 367 1152 1.520 10000.000 0.000 0.165
44 132.00 1500.00 418 1186 1.520 10000.000 0.000 0.165
45 135.00 1500.00 404 1210 1.520 10000.000 0.000 0.165
46 138.00 1500.00 430 1185 1.520 10000.000 0.000 0.165
47 141.00 1500.00 404 1178 1.520 10000.000 0.000 0.165
48 144.00 1500.00 338 1172 1.520 10000.000 0.000 0.165
49 147.00 1500.00 420 1157 1.520 10000.000 0.000 0.165
50 150.00 1500.00 402 1150 1.520 10000.000 0.000 0.165
51 153.00 1500.00 387 1156 1.520 10000.000 0.000 0.165
52 156.00 1500.00 337 1182 1.520 10000.000 0.000 0.165
53 159.00 1500.00 363 1226 1.520 10000.000 0.000 0.165
54 162.00 1500.00 404 1125 1.520 10000.000 0.000 0.165
55 165.00 1500.00 392 1147 1.520 10000.000 0.000 0.165
56 168.00 1500.00 399 1164 1.520 10000.000 0.000 0.165
57 171.00 1500.00 382 1144 1.520 10000.000 0.000 0.165
58 174.00 1500.00 383 1218 1.520 10000.000 0.000 0.165
59 177.00 1500.00 403 1125 1.520 10000.000 0.000 0.165
60 180.00 1500.00 354 1225 1.520 10000.000 0.000 0.165
61 183.00 1500.00 407 1164 1.520 10000.000 0.000 0.165
62 186.00 1500.00 383 1165 1.520 10000.000 0.000 0.165
63 189.00 1500.00 355 1087 1.520 10000.000 0.000 0.165
64 192.00 1500.00 375 1174 1.520 10000.000 0.000 0.165
65 195.00 1500.00 368 1161 1.520 10000.000 0.000 0.165
66 198.00 1500.00 365 1180 1.520 10000.000 0.000 0.165
67 201.00 1500.00 386 1146 1.520 10000.000 0.000 0.165
68 204.00 1500.00 381 1165 1.520 10000.000 0.000 0.165
69 207.00 1500.00 396 1173 1.520 10000.000 0.000 0.165
70 210.00 1500.00 410 1152 1.520 10000.000 0.000 0.165
71 213.00 1500.00 377 1174 1.520 10000.000 0.000 0.165
72 216.00 1500.00 406 1225 1.520 10000.000 0.000 0.165
73 219.00 1500.00 405 1161 1.520 10000.000 0.000 0.165
74 222.00 1500.00 414 1193 1.520 10000.000 0.000 0.165
75 225.00 1500.00 376 1150 1.520 10000.000 0.000 0.165
76 228.00 1500.00 383 1199 1.520 10000.000 0.000 0.165
77 231.00 1500.00 368 1119 1.520 10000.000 0.000 0.165
78 234.00 1500.00 411 1188 1.520 10000.000 0.000 0.165
79 237.00 1500.00 395 1159 1.520 10000.000 0.000 0.165
80 240.00 1500.00 398 1202 1.520 10000.000 0.000 0.165
81 243.00 1500.00 412 1154 1.520 10000.000 0.000 0.165
82 246.00 1500.00 368 1182 1.520 10000.000 0.000 0.165
83 249.00 1500.00 427 1145 1.520 10000.000 0.000 0.165
84 252.00 1500.00 405 1193 1.520 10000.000 0.000 0.165
85 255.00 1500.00 349 1247 1.520 10000.000 0.000 0.165
86 258.00 1500.00 378 1181 1.520 10000.000 0.000 0.165
87 261.00 1500.00 397 1112 1.520 10000.000 0.000 0.165
88 264.00 1500.00 392 1151 1.520 10000.000 0.000 0.165
89 267.00 1500.00 392 1142 1.520 10000.000 0.000 0.165
90 270.00 1500.00 372 1181 1.520 10000.000 0.000 0.165
91 273.00 1500.00 404 1239 1.520 10000.000 0.000 0.165
92 276.00 1500.00 406 1193 1.520 10000.000 0.000 0.165
93 279.00 1500.00 405 1183 1.520 10000.000 0.000 0.165
94 282.00 1500.00 422 1251 1.520 10000.000 0.000 0.165
95 285.00 1500.00 348 1157 1.520 10000.000 0.000 0.165
96 288.00 1500.00 407 1235 1.520 10000.000 0.000 0.165
97 291.00 1500.00 370 1139 1.520 10000.000 0.000 0.165
98 294.00 1500.00 395 1151 1.520 10000.000 0.000 0.165
99 297.00 1500.00 382 1175 1.520 10000.000 0.000 0.165
100 300.00 1500.00 388 1194 1.520 10000.000 0.000 0.165
101 303.00 1500.00 403 1208 1.520 10000.000 0.000 0.165
102 306.00 1500.00 400 1201 1.520 10000.000 0.000 0.165
103 309.00 1500.00 413 1183 1.520 10000.000 0.000 0.165
104 312.00 1500.00 379 1147 1.520 10000.000 0.000 0.165
105 315.00 1500.00 361 1134 1.520 10000.000 0.000 0.165
106 318.00 1500.00 411 1205 1.520 10000.000 0.000 0.165
107 321.00 1500.00 349 1100 1.520 10000.000 0.000 0.165
108 324.00 1500.00 374 1241 1.520 10000.000 0.000 0.165
109 327.00 1500.00 382 1141 1.520 10000.000 0.000 0.165
110 330.00 1500.00 386 1179 1.520 10000.000 0.000 0.165
111 333.00 1500.00 403 1108 1.520 10000.000 0.000 0.165
112 336.00 1500.00 383 1159 1.520 10000.000 0.000 0.165
113 339.00 1500.00 419 1156 1.520 10000.000 0.000 0.165
114 342.00 1500.00 404 1138 1.520 10000.000 0.000 0.165
115 345.00 1500.00 354 1120 1.520 10000.000 0.000 0.165
116 348.00 1500.00 376 1205 1.520 10000.000 0.000 0.165
117 351.00 1500.00 397 1180 1.520 10000.000 0.000 0.165
118 354.00 1500.00 409 1169 1.520 10000.000 0.000 0.165
119 357.00 1500.00 357 1141 1.520 10000.000 0.000 0.165
120 360.00 1500.00 404 1207 1.520 10000.000 0.000 0.165
121 363.00 1500.00 371 1147 1.520 10000.000 0.000 0.165
122 366.00 1500.00 416 1218 1.520 10000.000 0.000 0.165
123 369.00 1500.00 395 1145 1.520 10000.000 0.000 0.165
124 372.00 1500.00 377 1211 1.520 10000.000 0.000 0.165
125 375.00 1500.00 365 1144 1.520 10000.000 0.000 0.165
126 378.00 1500.00 449 1211 1.520 10000.000 0.000 0.165
127 381.00 1500.00 381 1162 1.520 10000.000 0.000 0.165
128 384.00 1500.00 380 1170 1.520 10000.000 0.000 0.165
129 387.00 1500.00 364 1205 1.520 10000.000 0.000 0.165
130 390.00 1500.00 392 1161 1.520 10000.000 0.000 0.165
131 393.00 1500.00 391 1162 1.520 10000.000 0.000 0.165
132 396.00 1500.00 391 1270 1.520 10000.000 0.000 0.165
133 399.00 1500.00 395 1207 1.520 10000.000 0.000 0.165
134 402.00 1500.00 395 1104 1.520 10000.000 0.000 0.165
135 405.00 1500.00 402 1181 1.520 10000.000 0.000 0.165
136 408.00 1500.00 401 1187 1.520 10000.000 0.000 0.165
137 411.00 1500.00 372 1189 1.520 10000.000 0.000 0.165
138 414.00 1500.00 356 1169 1.520 10000.000 0.000 0.165
139 417.00 1500.00 389 1200 1.520 10000.000 0.000 0.165
140 420.00 1500.00 392 1158 1.520 10000.000 0.000 0.165
141 423.00 1500.00 392 1153 1.520 10000.000 0.000 0.165
142 426.00 1500.00 419 1160 1.520 10000.000 0.000 0.165
143 429.00 1500.00 400 1186 1.520 10000.000 0.000 0.165
144 432.00 1500.00 384 1192 1.520 10000.000 0.000 0.165
