# BinNR microsec tot-time (s)  O-Beam AUX Ampl(V) f(Hz) phase(deg) chi(pos)
0 0.00 1500.00 169 585 1.520 10000.000 0.000 0.011
1 3.00 1500.00 381 1253 1.520 10000.000 0.000 0.011
2 6.00 1500.00 380 1193 1.520 10000.000 0.000 0.011
3 9.00 1500.00 366 1195 1.520 10000.000 0.000 0.011
4 12.00 1500.00 356 1194 1.520 10000.000 0.000 0.011
5 15.00 1500.00 371 1182 1.520 10000.000 0.000 0.011
6 18.00 1500.00 366 1208 1.520 10000.000 0.000 0.011
7 21.00 1500.00 397 1216 1.520 10000.000 0.000 0.011
8 24.00 1500.00 402 1177 1.520 10000.000 0.000 0.011
9 27.00 1500.00 379 1173 1.520 10000.000 0.000 0.011
10 30.00 1500.00 361 1142 1.520 10000.000 0.000 0.011
11 33.00 1500.00 409 1162 1.520 10000.000 0.000 0.011
12 36.00 1500.00 368 1144 1.520 10000.000 0.000 0.011
13 39.00 1500.00 421 1207 1.520 10000.000 0.000 0.011
14 42.00 1500.00 359 1173 1.520 10000.000 0.000 0.011
15 45.00 1500.00 397 1193 1.520 10000.000 0.000 0.011
16 48.00 1500.00 422 1169 1.520 10000.000 0.000 0.011
17 51.00 1500.00 402 1196 1.520 10000.000 0.000 0.011
18 54.00 1500.00 391 1213 1.520 10000.000 0.000 0.011
19 57.00 1500.00 348 1136 1.520 10000.000 0.000 0.011
20 60.00 1500.00 397 1237 1.520 10000.000 0.000 0.011
21 63.00 1500.00 382 1131 1.520 10000.000 0.000 0.011
22 66.00 1500.00 377 1133 1.520 10000.000 0.000 0.011
23 69.00 1500.00 396 1215 1.520 10000.000 0.000 0.011
24 72.00 1500.00 400 1204 1.520 10000.000 0.000 0.011
25 75.00 1500.00 382 1156 1.520 10000.000 0.000 0.011
26 78.00 1500.00 370 1138 1.520 10000.000 0.000 0.011
27 81.00 1500.00 357 1172 1.520 10000.000 0.000 0.011
28 84.00 1500.00 364 1138 1.520 10000.000 0.000 0.011
29 87.00 1500.00 401 1097 1.520 10000.000 0.000 0.011
30 90.00 1500.00 363 1132 1.520 10000.000 0.000 0.011
31 93.00 1500.00 367 1193 1.520 10000.000 0.000 0.011
32 96.00 1500.00 417 1158 1.520 10000.000 0.000 0.011
33 99.00 1500.00 369 1183 1.520 10000.000 0.000 0.011
34 102.00 1500.00 393 1158 1.520 10000.000 0.000 0.011
35 105.00 1500.00 400 1170 1.520 10000.000 0.000 0.011
36 108.00 1500.00 379 1224 1.520 10000.000 0.000 0.011
37 111.00 1500.00 365 1130 1.520 10000.000 0.000 0.011
38 114.00 1500.00 417 1181 1.520 10000.000 0.000 0.011
39 117.00 1500.00 389 1200 1.520 10000.000 0.000 0.011
40 120.00 1500.00 372 1250 1.520 10000.000 0.000 0.011
41 123.00 1500.00 365 1179 1.520 10000.000 0.000 0.011
42 126.00 1500.00 376 1226 1.520 10000.000 0.000 0.011
43 129.00 1500.00 390 1159 1.520 10000.000 0.000 0.011
44 132.00 1500.00 411 1185 1.520 10000.000 0.000 0.011
45 135.00 1500.00 366 1167 1.520 10000.000 0.000 0.011
46 138.00 1500.00 347 1213 1.520 10000.000 0.000 0.011
47 141.00 1500.00 373 1229 1.520 10000.000 0.000 0.011
48 144.00 1500.00 365 1163 1.520 10000.000 0.000 0.011
49 147.00 1500.00 387 1238 1.520 10000.000 0.000 0.011
50 150.00 1500.00 367 1198 1.520 10000.000 0.000 0.011
51 153.00 1500.00 379 1158 1.520 10000.000 0.000 0.011
52 156.00 1500.00 388 1195 1.520 10000.000 0.000 0.011
53 159.00 1500.00 386 1142 1.520 10000.000 0.000 0.011
54 162.00 1500.00 358 1151 1.520 10000.000 0.000 0.011
55 165.00 1500.00 381 1176 1.520 10000.000 0.000 0.011
56 168.00 1500.00 381 1220 1.520 10000.000 0.000 0.011
57 171.00 1500.00 365 1118 1.520 10000.000 0.000 0.011
58 174.00 1500.00 343 1211 1.520 10000.000 0.000 0.011
59 177.00 1500.00 406 1201 1.520 10000.000 0.000 0.011
60 180.00 1500.00 380 1173 1.520 10000.000 0.000 0.011
61 183.00 1500.00 347 1208 1.520 10000.000 0.000 0.011
62 186.00 1500.00 377 1160 1.520 10000.000 0.000 0.011
63 189.00 1500.00 373 1168 1.520 10000.000 0.000 0.011
64 192.00 1500.00 391 1193 1.520 10000.000 0.000 0.011
65 195.00 1500.00 413 1234 1.520 10000.000 0.000 0.011
66 198.00 1500.00 361 1186 1.520 10000.000 0.000 0.011
67 201.00 1500.00 360 1181 1.520 10000.000 0.000 0.011
68 204.00 1500.00 384 1129 1.520 10000.000 0.000 0.011
69 207.00 1500.00 365 1148 1.520 10000.000 0.000 0.011
70 210.00 1500.00 399 1171 1.520 10000.000 0.000 0.011
71 213.00 1500.00 401 1203 1.520 10000.000 0.000 0.011
72 216.00 1500.00 387 1271 1.520 10000.000 0.000 0.011
73 219.00 1500.00 344 1183 1.520 10000.000 0.000 0.011
74 222.00 1500.00 431 1245 1.520 10000.000 0.000 0.011
75 225.00 1500.00 354 1185 1.520 10000.000 0.000 0.011
76 228.00 1500.00 378 1229 1.520 10000.000 0.000 0.011
77 231.00 1500.00 385 1209 1.520 10000.000 0.000 0.011
78 234.00 1500.00 397 1151 1.520 10000.000 0.000 0.011
79 237.00 1500.00 384 1167 1.520 10000.000 0.000 0.011
80 240.00 1500.00 385 1267 1.520 10000.000 0.000 0.011
81 243.00 1500.00 375 1166 1.520 10000.000 0.000 0.011
82 246.00 1500.00 361 1242 1.520 10000.000 0.000 0.011
83 249.00 1500.00 400 1155 1.520 10000.000 0.000 0.011
84 252.00 1500.00 357 1166 1.520 10000.000 0.000 0.011
85 255.00 1500.00 355 1240 1.520 10000.000 0.000 0.011
86 258.00 1500.00 386 1129 1.520 10000.000 0.000 0.011
87 261.00 1500.00 364 1175 1.520 10000.000 0.000 0.011
88 264.00 1500.00 373 1235 1.520 10000.000 0.000 0.011
89 267.00 1500.00 403 1214 1.520 10000.000 0.000 0.011
90 270.00 1500.00 383 1218 1.520 10000.000 0.000 0.011
91 273.00 1500.00 381 1113 1.520 10000.000 0.000 0.011
92 276.00 1500.00 393 1186 1.520 10000.000 0.000 0.011
93 279.00 1500.00 406 1150 1.520 10000.000 0.000 0.011
94 282.00 1500.00 395 1217 1.520 10000.000 0.000 0.011
95 285.00 1500.00 377 1146 1.520 10000.000 0.000 0.011
96 288.00 1500.00 386 1220 1.520 10000.000 0.000 0.011
97 291.00 1500.00 365 1184 1.520 10000.000 0.000 0.011
98 294.00 1500.00 414 1186 1.520 10000.000 0.000 0.011
99 297.00 1500.00 358 1203 1.520 10000.000 0.000 0.011
100 300.00 1500.00 374 1208 1.520 10000.000 0.000 0.011
101 303.00 1500.00 375 1141 1.520 10000.000 0.000 0.011
102 306.00 1500.00 391 1193 1.520 10000.000 0.000 0.011
103 309.00 1500.00 329 1102 1.520 10000.000 0.000 0.011
104 312.00 1500.00 395 1206 1.520 10000.000 0.000 0.011
105 315.00 1500.00 399 1163 1.520 10000.000 0.000 0.011
106 318.00 1500.00 350 1166 1.520 10000.000 0.000 0.011
107 321.00 1500.00 380 1157 1.520 10000.000 0.000 0.011
108 324.00 1500.00 374 1181 1.520 10000.000 0.000 0.011
109 327.00 1500.00 380 1166 1.520 10000.000 0.000 0.011
110 330.00 1500.00 371 1212 1.520 10000.000 0.000 0.011
111 333.00 1500.00 402 1173 1.520 10000.000 0.000 0.011
112 336.00 1500.00 358 1216 1.520 10000.000 0.000 0.011
113 339.00 1500.00 385 1090 1.520 10000.000 0.000 0.011
114 342.00 1500.00 414 1141 1.520 10000.000 0.000 0.011
115 345.00 1500.00 384 1163 1.520 10000.000 0.000 0.011
116 348.00 1500.00 420 1107 1.520 10000.000 0.000 0.011
117 351.00 1500.00 374 1192 1.520 10000.000 0.000 0.011
118 354.00 1500.00 380 1217 1.520 10000.000 0.000 0.011
119 357.00 1500.00 377 1253 1.520 10000.000 0.000 0.011
120 360.00 1500.00 400 1185 1.520 10000.000 0.000 0.011
121 363.00 1500.00 358 1135 1.520 10000.000 0.000 0.011
122 366.00 1500.00 365 1170 1.520 10000.000 0.000 0.011
123 369.00 1500.00 382 1160 1.520 10000.000 0.000 0.011
124 372.00 1500.00 379 1186 1.520 10000.000 0.000 0.011
125 375.00 1500.00 380 1157 1.520 10000.000 0.000 0.011
126 378.00 1500.00 370 1207 1.520 10000.000 0.000 0.011
127 381.00 1500.00 368 1161 1.520 10000.000 0.000 0.011
128 384.00 1500.00 395 1180 1.520 10000.000 0.000 0.011
129 387.00 1500.00 363 1136 1.520 10000.000 0.000 0.011
130 390.00 1500.00 424 1102 1.520 10000.000 0.000 0.011
131 393.00 1500.00 416 1147 1.520 10000.000 0.000 0.011
132 396.00 1500.00 362 1131 1.520 10000.000 0.000 0.011
133 399.00 1500.00 381 1107 1.520 10000.000 0.000 0.011
134 402.00 1500.00 395 1174 1.520 10000.000 0.000 0.011
135 405.00 1500.00 402 1185 1.520 10000.000 0.000 0.011
136 408.00 1500.00 368 1246 1.520 10000.000 0.000 0.011
137 411.00 1500.00 394 1230 1.520 10000.000 0.000 0.011
138 414.00 1500.00 403 1122 1.520 10000.000 0.000 0.011
139 417.00 1500.00 350 1176 1.520 10000.000 0.000 0.011
140 420.00 1500.00 407 1197 1.520 10000.000 0.000 0.011
141 423.00 1500.00 359 1161 1.520 10000.000 0.000 0.011
142 426.00 1500.00 369 1201 1.520 10000.000 0.000 0.011
143 429.00 1500.00 368 1146 1.520 10000.000 0.000 0.011
144 432.00 1500.00 362 1239 1.520 10000.000 0.000 0.011
