# BinNR microsec tot-time (s)  O-Beam AUX Ampl(V) f(Hz) phase(deg) chi(pos)
0 0.00 1500.01 165 421 1.520 10000.000 0.000 0.505
1 3.00 1500.01 345 877 1.520 10000.000 0.000 0.505
2 6.00 1500.01 314 911 1.520 10000.000 0.000 0.505
3 9.00 1500.01 321 760 1.520 10000.000 0.000 0.505
4 12.00 1500.01 327 873 1.520 10000.000 0.000 0.505
5 15.00 1500.01 338 810 1.520 10000.000 0.000 0.505
6 18.00 1500.01 323 838 1.520 10000.000 0.000 0.505
7 21.00 1500.01 325 876 1.520 10000.000 0.000 0.505
8 24.00 1500.01 337 854 1.520 10000.000 0.000 0.505
9 27.00 1500.01 358 822 1.520 10000.000 0.000 0.505
10 30.00 1500.01 322 816 1.520 10000.000 0.000 0.505
11 33.00 1500.01 313 840 1.520 10000.000 0.000 0.505
12 36.00 1500.01 329 860 1.520 10000.000 0.000 0.505
13 39.00 1500.01 329 842 1.520 10000.000 0.000 0.505
14 42.00 1500.01 352 877 1.520 10000.000 0.000 0.505
15 45.00 1500.01 292 806 1.520 10000.000 0.000 0.505
16 48.00 1500.01 299 843 1.520 10000.000 0.000 0.505
17 51.00 1500.01 317 806 1.520 10000.000 0.000 0.505
18 54.00 1500.01 334 849 1.520 10000.000 0.000 0.505
19 57.00 1500.01 315 836 1.520 10000.000 0.000 0.505
20 60.00 1500.01 362 787 1.520 10000.000 0.000 0.505
21 63.00 1500.01 300 848 1.520 10000.000 0.000 0.505
22 66.00 1500.01 336 874 1.520 10000.000 0.000 0.505
23 69.00 1500.01 339 778 1.520 10000.000 0.000 0.505
24 72.00 1500.01 317 792 1.520 10000.000 0.000 0.505
25 75.00 1500.01 308 861 1.520 10000.000 0.000 0.505
26 78.00 1500.01 344 788 1.520 10000.000 0.000 0.505
27 81.00 1500.01 319 811 1.520 10000.000 0.000 0.505
28 84.00 1500.01 307 861 1.520 10000.000 0.000 0.505
29 87.00 1500.01 309 773 1.520 10000.000 0.000 0.505
30 90.00 1500.01 361 866 1.520 10000.000 0.000 0.505
31 93.00 1500.01 295 790 1.520 10000.000 0.000 0.505
32 96.00 1500.01 337 829 1.520 10000.000 0.000 0.505
33 99.00 1500.01 316 846 1.520 10000.000 0.000 0.505
34 102.00 1500.01 324 837 1.520 10000.000 0.000 0.505
35 105.00 1500.01 349 833 1.520 10000.000 0.000 0.505
36 108.00 1500.01 303 875 1.520 10000.000 0.000 0.505
37 111.00 1500.01 319 835 1.520 10000.000 0.000 0.505
38 114.00 1500.01 334 844 1.520 10000.000 0.000 0.505
39 117.00 1500.01 342 836 1.520 10000.000 0.000 0.505
40 120.00 1500.01 340 795 1.520 10000.000 0.000 0.505
41 123.00 1500.01 299 835 1.520 10000.000 0.000 0.505
42 126.00 1500.01 357 834 1.520 10000.000 0.000 0.505
43 129.00 1500.01 321 778 1.520 10000.000 0.000 0.505
44 132.00 1500.01 333 827 1.520 10000.000 0.000 0.505
45 135.00 1500.01 346 813 1.520 10000.000 0.000 0.505
46 138.00 1500.01 323 855 1.520 10000.000 0.000 0.505
47 141.00 1500.01 329 847 1.520 10000.000 0.000 0.505
48 144.00 1500.01 322 864 1.520 10000.000 0.000 0.505
49 147.00 1500.01 337 770 1.520 10000.000 0.000 0.505
50 150.00 1500.01 337 811 1.520 10000.000 0.000 0.505
51 153.00 1500.01 307 799 1.520 10000.000 0.000 0.505
52 156.00 1500.01 289 900 1.520 10000.000 0.000 0.505
53 159.00 1500.01 338 813 1.520 10000.000 0.000 0.505
54 162.00 1500.01 335 844 1.520 10000.000 0.000 0.505
55 165.00 1500.01 337 857 1.520 10000.000 0.000 0.505
56 168.00 1500.01 328 787 1.520 10000.000 0.000 0.505
57 171.00 1500.01 319 886 1.520 10000.000 0.000 0.505
58 174.00 1500.01 352 827 1.520 10000.000 0.000 0.505
59 177.00 1500.01 320 826 1.520 10000.000 0.000 0.505
60 180.00 1500.01 342 901 1.520 10000.000 0.000 0.505
61 183.00 1500.01 316 833 1.520 10000.000 0.000 0.505
62 186.00 1500.01 306 803 1.520 10000.000 0.000 0.505
63 189.00 1500.01 328 794 1.520 10000.000 0.000 0.505
64 192.00 1500.01 344 862 1.520 10000.000 0.000 0.505
65 195.00 1500.01 301 850 1.520 10000.000 0.000 0.505
66 198.00 1500.01 316 845 1.520 10000.000 0.000 0.505
67 201.00 1500.01 350 834 1.520 10000.000 0.000 0.505
68 204.00 1500.01 342 862 1.520 10000.000 0.000 0.505
69 207.00 1500.01 309 819 1.520 10000.000 0.000 0.505
70 210.00 1500.01 302 832 1.520 10000.000 0.000 0.505
71 213.00 1500.01 316 818 1.520 10000.000 0.000 0.505
72 216.00 1500.01 325 839 1.520 10000.000 0.000 0.505
73 219.00 1500.01 319 863 1.520 10000.000 0.000 0.505
74 222.00 1500.01 313 873 1.520 10000.000 0.000 0.505
75 225.00 1500.01 319 818 1.520 10000.000 0.000 0.505
76 228.00 1500.01 312 844 1.520 10000.000 0.000 0.505
77 231.00 1500.01 322 857 1.520 10000.000 0.000 0.505
78 234.00 1500.01 322 825 1.520 10000.000 0.000 0.505
79 237.00 1500.01 337 868 1.520 10000.000 0.000 0.505
80 240.00 1500.01 356 891 1.520 10000.000 0.000 0.505
81 243.00 1500.01 340 814 1.520 10000.000 0.000 0.505
82 246.00 1500.01 328 831 1.520 10000.000 0.000 0.505
83 249.00 1500.01 321 846 1.520 10000.000 0.000 0.505
84 252.00 1500.01 330 877 1.520 10000.000 0.000 0.505
85 255.00 1500.01 326 776 1.520 10000.000 0.000 0.505
86 258.00 1500.01 340 817 1.520 10000.000 0.000 0.505
87 261.00 1500.01 336 816 1.520 10000.000 0.000 0.505
88 264.00 1500.01 337 842 1.520 10000.000 0.000 0.505
89 267.00 1500.01 349 831 1.520 10000.000 0.000 0.505
90 270.00 1500.01 331 835 1.520 10000.000 0.000 0.505
91 273.00 1500.01 342 837 1.520 10000.000 0.000 0.505
92 276.00 1500.01 325 831 1.520 10000.000 0.000 0.505
93 279.00 1500.01 334 818 1.520 10000.000 0.000 0.505
94 282.00 1500.01 284 822 1.520 10000.000 0.000 0.505
95 285.00 1500.01 278 796 1.520 10000.000 0.000 0.505
96 288.00 1500.01 330 877 1.520 10000.000 0.000 0.505
97 291.00 1500.01 371 807 1.520 10000.000 0.000 0.505
98 294.00 1500.01 344 903 1.520 10000.000 0.000 0.505
99 297.00 1500.01 318 803 1.520 10000.000 0.000 0.505
100 300.00 1500.01 325 872 1.520 10000.000 0.000 0.505
101 303.00 1500.01 298 797 1.520 10000.000 0.000 0.505
102 306.00 1500.01 322 863 1.520 10000.000 0.000 0.505
103 309.00 1500.01 311 841 1.520 10000.000 0.000 0.505
104 312.00 1500.01 331 813 1.520 10000.000 0.000 0.505
105 315.00 1500.01 314 862 1.520 10000.000 0.000 0.505
106 318.00 1500.01 327 803 1.520 10000.000 0.000 0.505
107 321.00 1500.01 325 842 1.520 10000.000 0.000 0.505
108 324.00 1500.01 328 856 1.520 10000.000 0.000 0.505
109 327.00 1500.01 331 843 1.520 10000.000 0.000 0.505
110 330.00 1500.01 329 851 1.520 10000.000 0.000 0.505
111 333.00 1500.01 336 822 1.520 10000.000 0.000 0.505
112 336.00 1500.01 309 858 1.520 10000.000 0.000 0.505
113 339.00 1500.01 329 805 1.520 10000.000 0.000 0.505
114 342.00 1500.01 319 806 1.520 10000.000 0.000 0.505
115 345.00 1500.01 315 814 1.520 10000.000 0.000 0.505
116 348.00 1500.01 348 834 1.520 10000.000 0.000 0.505
117 351.00 1500.01 339 823 1.520 10000.000 0.000 0.505
118 354.00 1500.01 349 876 1.520 10000.000 0.000 0.505
119 357.00 1500.01 319 846 1.520 10000.000 0.000 0.505
120 360.00 1500.01 368 850 1.520 10000.000 0.000 0.505
121 363.00 1500.01 315 840 1.520 10000.000 0.000 0.505
122 366.00 1500.01 331 843 1.520 10000.000 0.000 0.505
123 369.00 1500.01 328 872 1.520 10000.000 0.000 0.505
124 372.00 1500.01 305 862 1.520 10000.000 0.000 0.505
125 375.00 1500.01 342 824 1.520 10000.000 0.000 0.505
126 378.00 1500.01 318 835 1.520 10000.000 0.000 0.505
127 381.00 1500.01 333 844 1.520 10000.000 0.000 0.505
128 384.00 1500.01 319 813 1.520 10000.000 0.000 0.505
129 387.00 1500.01 299 822 1.520 10000.000 0.000 0.505
130 390.00 1500.01 314 852 1.520 10000.000 0.000 0.505
131 393.00 1500.01 357 795 1.520 10000.000 0.000 0.505
132 396.00 1500.01 341 866 1.520 10000.000 0.000 0.505
133 399.00 1500.01 331 816 1.520 10000.000 0.000 0.505
134 402.00 1500.01 346 852 1.520 10000.000 0.000 0.505
135 405.00 1500.01 324 881 1.520 10000.000 0.000 0.505
136 408.00 1500.01 333 859 1.520 10000.000 0.000 0.505
137 411.00 1500.01 296 870 1.520 10000.000 0.000 0.505
138 414.00 1500.01 339 845 1.520 10000.000 0.000 0.505
139 417.00 1500.01 329 790 1.520 10000.000 0.000 0.505
140 420.00 1500.01 329 864 1.520 10000.000 0.000 0.505
141 423.00 1500.01 309 817 1.520 10000.000 0.000 0.505
142 426.00 1500.01 320 829 1.520 10000.000 0.000 0.505
143 429.00 1500.01 316 817 1.520 10000.000 0.000 0.505
144 432.00 1500.01 324 869 1.520 10000.000 0.000 0.505
