# BinNR microsec tot-time (s)  O-Beam AUX Ampl(V) f(Hz) phase(deg) chi(pos)
0 0.00 1500.02 84 100 1.520 10000.000 0.000 1.000
1 3.00 1500.02 160 233 1.520 10000.000 0.000 1.000
2 6.00 1500.02 158 230 1.520 10000.000 0.000 1.000
3 9.00 1500.02 151 221 1.520 10000.000 0.000 1.000
4 12.00 1500.02 142 244 1.520 10000.000 0.000 1.000
5 15.00 1500.02 145 226 1.520 10000.000 0.000 1.000
6 18.00 1500.02 140 253 1.520 10000.000 0.000 1.000
7 21.00 1500.02 166 208 1.520 10000.000 0.000 1.000
8 24.00 1500.02 162 217 1.520 10000.000 0.000 1.000
9 27.00 1500.02 162 216 1.520 10000.000 0.000 1.000
10 30.00 1500.02 154 237 1.520 10000.000 0.000 1.000
11 33.00 1500.02 151 215 1.520 10000.000 0.000 1.000
12 36.00 1500.02 151 242 1.520 10000.000 0.000 1.000
13 39.00 1500.02 158 248 1.520 10000.000 0.000 1.000
14 42.00 1500.02 165 239 1.520 10000.000 0.000 1.000
15 45.00 1500.02 138 230 1.520 10000.000 0.000 1.000
16 48.00 1500.02 174 222 1.520 10000.000 0.000 1.000
17 51.00 1500.02 155 238 1.520 10000.000 0.000 1.000
18 54.00 1500.02 165 231 1.520 10000.000 0.000 1.000
19 57.00 1500.02 169 232 1.520 10000.000 0.000 1.000
20 60.00 1500.02 161 204 1.520 10000.000 0.000 1.000
21 63.00 1500.02 153 232 1.520 10000.000 0.000 1.000
22 66.00 1500.02 182 227 1.520 10000.000 0.000 1.000
23 69.00 1500.02 158 247 1.520 10000.000 0.000 1.000
24 72.00 1500.02 172 249 1.520 10000.000 0.000 1.000
25 75.00 1500.02 138 231 1.520 10000.000 0.000 1.000
26 78.00 1500.02 168 222 1.520 10000.000 0.000 1.000
27 81.00 1500.02 167 235 1.520 10000.000 0.000 1.000
28 84.00 1500.02 172 242 1.520 10000.000 0.000 1.000
29 87.00 1500.02 160 257 1.520 10000.000 0.000 1.000
30 90.00 1500.02 152 212 1.520 10000.000 0.000 1.000
31 93.00 1500.02 138 241 1.520 10000.000 0.000 1.000
32 96.00 1500.02 146 219 1.520 10000.000 0.000 1.000
33 99.00 1500.02 164 247 1.520 10000.000 0.000 1.000
34 102.00 1500.02 159 226 1.520 10000.000 0.000 1.000
35 105.00 1500.02 156 205 1.520 10000.000 0.000 1.000
36 108.00 1500.02 175 224 1.520 10000.000 0.000 1.000
37 111.00 1500.02 163 241 1.520 10000.000 0.000 1.000
38 114.00 1500.02 152 233 1.520 10000.000 0.000 1.000
39 117.00 1500.02 159 233 1.520 10000.000 0.000 1.000
40 120.00 1500.02 153 214 1.520 10000.000 0.000 1.000
41 123.00 1500.02 152 208 1.520 10000.000 0.000 1.000
42 126.00 1500.02 150 219 1.520 10000.000 0.000 1.000
43 129.00 1500.02 176 227 1.520 10000.000 0.000 1.000
44 132.00 1500.02 179 190 1.520 10000.000 0.000 1.000
45 135.00 1500.02 150 228 1.520 10000.000 0.000 1.000
46 138.00 1500.02 167 203 1.520 10000.000 0.000 1.000
47 141.00 1500.02 149 222 1.520 10000.000 0.000 1.000
48 144.00 1500.02 175 231 1.520 10000.000 0.000 1.000
49 147.00 1500.02 152 244 1.520 10000.000 0.000 1.000
50 150.00 1500.02 165 248 1.520 10000.000 0.000 1.000
51 153.00 1500.02 164 221 1.520 10000.000 0.000 1.000
52 156.00 1500.02 149 204 1.520 10000.000 0.000 1.000
53 159.00 1500.02 156 236 1.520 10000.000 0.000 1.000
54 162.00 1500.02 158 204 1.520 10000.000 0.000 1.000
55 165.00 1500.02 150 224 1.520 10000.000 0.000 1.000
56 168.00 1500.02 174 253 1.520 10000.000 0.000 1.000
57 171.00 1500.02 153 235 1.520 10000.000 0.000 1.000
58 174.00 1500.02 164 242 1.520 10000.000 0.000 1.000
59 177.00 1500.02 158 238 1.520 10000.000 0.000 1.000
60 180.00 1500.02 153 217 1.520 10000.000 0.000 1.000
61 183.00 1500.02 134 226 1.520 10000.000 0.000 1.000
62 186.00 1500.02 159 236 1.520 10000.000 0.000 1.000
63 189.00 1500.02 154 235 1.520 10000.000 0.000 1.000
64 192.00 1500.02 187 222 1.520 10000.000 0.000 1.000
65 195.00 1500.02 154 242 1.520 10000.000 0.000 1.000
66 198.00 1500.02 149 239 1.520 10000.000 0.000 1.000
67 201.00 1500.02 177 220 1.520 10000.000 0.000 1.000
68 204.00 1500.02 140 221 1.520 10000.000 0.000 1.000
69 207.00 1500.02 144 270 1.520 10000.000 0.000 1.000
70 210.00 1500.02 163 220 1.520 10000.000 0.000 1.000
71 213.00 1500.02 150 224 1.520 10000.000 0.000 1.000
72 216.00 1500.02 155 219 1.520 10000.000 0.000 1.000
73 219.00 1500.02 156 247 1.520 10000.000 0.000 1.000
74 222.00 1500.02 163 230 1.520 10000.000 0.000 1.000
75 225.00 1500.02 148 182 1.520 10000.000 0.000 1.000
76 228.00 1500.02 157 211 1.520 10000.000 0.000 1.000
77 231.00 1500.02 176 223 1.520 10000.000 0.000 1.000
78 234.00 1500.02 136 237 1.520 10000.000 0.000 1.000
79 237.00 1500.02 158 230 1.520 10000.000 0.000 1.000
80 240.00 1500.02 170 203 1.520 10000.000 0.000 1.000
81 243.00 1500.02 177 229 1.520 10000.000 0.000 1.000
82 246.00 1500.02 165 230 1.520 10000.000 0.000 1.000
83 249.00 1500.02 178 241 1.520 10000.000 0.000 1.000
84 252.00 1500.02 187 243 1.520 10000.000 0.000 1.000
85 255.00 1500.02 157 227 1.520 10000.000 0.000 1.000
86 258.00 1500.02 168 221 1.520 10000.000 0.000 1.000
87 261.00 1500.02 157 239 1.520 10000.000 0.000 1.000
88 264.00 1500.02 164 223 1.520 10000.000 0.000 1.000
89 267.00 1500.02 144 242 1.520 10000.000 0.000 1.000
90 270.00 1500.02 170 243 1.520 10000.000 0.000 1.000
91 273.00 1500.02 164 222 1.520 10000.000 0.000 1.000
92 276.00 1500.02 150 235 1.520 10000.000 0.000 1.000
93 279.00 1500.02 147 213 1.520 10000.000 0.000 1.000
94 282.00 1500.02 136 242 1.520 10000.000 0.000 1.000
95 285.00 1500.02 195 228 1.520 10000.000 0.000 1.000
96 288.00 1500.02 161 261 1.520 10000.000 0.000 1.000
97 291.00 1500.02 135 220 1.520 10000.000 0.000 1.000
98 294.00 1500.02 172 233 1.520 10000.000 0.000 1.000
99 297.00 1500.02 174 219 1.520 10000.000 0.000 1.000
100 300.00 1500.02 191 239 1.520 10000.000 0.000 1.000
101 303.00 1500.02 155 232 1.520 10000.000 0.000 1.000
102 306.00 1500.02 167 229 1.520 10000.000 0.000 1.000
103 309.00 1500.02 158 222 1.520 10000.000 0.000 1.000
104 312.00 1500.02 161 247 1.520 10000.000 0.000 1.000
105 315.00 1500.02 153 243 1.520 10000.000 0.000 1.000
106 318.00 1500.02 149 246 1.520 10000.000 0.000 1.000
107 321.00 1500.02 170 232 1.520 10000.000 0.000 1.000
108 324.00 1500.02 150 226 1.520 10000.000 0.000 1.000
109 327.00 1500.02 149 237 1.520 10000.000 0.000 1.000
110 330.00 1500.02 154 244 1.520 10000.000 0.000 1.000
111 333.00 1500.02 167 222 1.520 10000.000 0.000 1.000
112 336.00 1500.02 141 228 1.520 10000.000 0.000 1.000
113 339.00 1500.02 157 215 1.520 10000.000 0.000 1.000
114 342.00 1500.02 161 215 1.520 10000.000 0.000 1.000
115 345.00 1500.02 152 241 1.520 10000.000 0.000 1.000
116 348.00 1500.02 187 229 1.520 10000.000 0.000 1.000
117 351.00 1500.02 176 233 1.520 10000.000 0.000 1.000
118 354.00 1500.02 161 228 1.520 10000.000 0.000 1.000
119 357.00 1500.02 177 244 1.520 10000.000 0.000 1.000
120 360.00 1500.02 178 233 1.520 10000.000 0.000 1.000
121 363.00 1500.02 165 200 1.520 10000.000 0.000 1.000
122 366.00 1500.02 171 238 1.520 10000.000 0.000 1.000
123 369.00 1500.02 152 227 1.520 10000.000 0.000 1.000
124 372.00 1500.02 142 238 1.520 10000.000 0.000 1.000
125 375.00 1500.02 169 240 1.520 10000.000 0.000 1.000
126 378.00 1500.02 153 253 1.520 10000.000 0.000 1.000
127 381.00 1500.02 167 208 1.520 10000.000 0.000 1.000
128 384.00 1500.02 168 231 1.520 10000.000 0.000 1.000
129 387.00 1500.02 145 252 1.520 10000.000 0.000 1.000
130 390.00 1500.02 151 225 1.520 10000.000 0.000 1.000
131 393.00 1500.02 172 232 1.520 10000.000 0.000 1.000
132 396.00 1500.02 177 204 1.520 10000.000 0.000 1.000
133 399.00 1500.02 165 231 1.520 10000.000 0.000 1.000
134 402.00 1500.02 166 223 1.520 10000.000 0.000 1.000
135 405.00 1500.02 174 237 1.520 10000.000 0.000 1.000
136 408.00 1500.02 151 223 1.520 10000.000 0.000 1.000
137 411.00 1500.02 152 221 1.520 10000.000 0.000 1.000
138 414.00 1500.02 191 218 1.520 10000.000 0.000 1.000
139 417.00 1500.02 156 241 1.520 10000.000 0.000 1.000
140 420.00 1500.02 195 205 1.520 10000.000 0.000 1.000
141 423.00 1500.02 131 231 1.520 10000.000 0.000 1.000
142 426.00 1500.02 169 253 1.520 10000.000 0.000 1.000
143 429.00 1500.02 185 234 1.520 10000.000 0.000 1.000
144 432.00 1500.02 161 209 1.520 10000.000 0.000 1.000
