# BinNR microsec tot-time (s)  O-Beam AUX Ampl(V) f(Hz) phase(deg) chi(pos)
0 0.00 1500.01 96 235 1.520 10000.000 0.000 1.505
1 3.00 1500.01 204 481 1.520 10000.000 0.000 1.505
2 6.00 1500.01 174 496 1.520 10000.000 0.000 1.505
3 9.00 1500.01 170 512 1.520 10000.000 0.000 1.505
4 12.00 1500.01 232 488 1.520 10000.000 0.000 1.505
5 15.00 1500.01 201 494 1.520 10000.000 0.000 1.505
6 18.00 1500.01 180 476 1.520 10000.000 0.000 1.505
7 21.00 1500.01 199 562 1.520 10000.000 0.000 1.505
8 24.00 1500.01 219 497 1.520 10000.000 0.000 1.505
9 27.00 1500.01 220 531 1.520 10000.000 0.000 1.505
10 30.00 1500.01 194 467 1.520 10000.000 0.000 1.505
11 33.00 1500.01 201 468 1.520 10000.000 0.000 1.505
12 36.00 1500.01 204 509 1.520 10000.000 0.000 1.505
13 39.00 1500.01 214 518 1.520 10000.000 0.000 1.505
14 42.00 1500.01 206 565 1.520 10000.000 0.000 1.505
15 45.00 1500.01 205 500 1.520 10000.000 0.000 1.505
16 48.00 1500.01 212 528 1.520 10000.000 0.000 1.505
17 51.00 1500.01 194 458 1.520 10000.000 0.000 1.505
18 54.00 1500.01 197 506 1.520 10000.000 0.000 1.505
19 57.00 1500.01 192 469 1.520 10000.000 0.000 1.505
20 60.00 1500.01 214 529 1.520 10000.000 0.000 1.505
21 63.00 1500.01 188 493 1.520 10000.000 0.000 1.505
22 66.00 1500.01 200 552 1.520 10000.000 0.000 1.505
23 69.00 1500.01 183 520 1.520 10000.000 0.000 1.505
24 72.00 1500.01 201 485 1.520 10000.000 0.000 1.505
25 75.00 1500.01 203 521 1.520 10000.000 0.000 1.505
26 78.00 1500.01 211 487 1.520 10000.000 0.000 1.505
27 81.00 1500.01 227 532 1.520 10000.000 0.000 1.505
28 84.00 1500.01 201 529 1.520 10000.000 0.000 1.505
29 87.00 1500.01 218 477 1.520 10000.000 0.000 1.505
30 90.00 1500.01 178 495 1.520 10000.000 0.000 1.505
31 93.00 1500.01 206 476 1.520 10000.000 0.000 1.505
32 96.00 1500.01 207 512 1.520 10000.000 0.000 1.505
33 99.00 1500.01 209 518 1.520 10000.000 0.000 1.505
34 102.00 1500.01 203 508 1.520 10000.000 0.000 1.505
35 105.00 1500.01 190 478 1.520 10000.000 0.000 1.505
36 108.00 1500.01 214 531 1.520 10000.000 0.000 1.505
37 111.00 1500.01 220 480 1.520 10000.000 0.000 1.505
38 114.00 1500.01 211 495 1.520 10000.000 0.000 1.505
39 117.00 1500.01 191 494 1.520 10000.000 0.000 1.505
40 120.00 1500.01 209 476 1.520 10000.000 0.000 1.505
41 123.00 1500.01 202 518 1.520 10000.000 0.000 1.505
42 126.00 1500.01 178 527 1.520 10000.000 0.000 1.505
43 129.00 1500.01 209 490 1.520 10000.000 0.000 1.505
44 132.00 1500.01 204 514 1.520 10000.000 0.000 1.505
45 135.00 1500.01 193 505 1.520 10000.000 0.000 1.505
46 138.00 1500.01 191 458 1.520 10000.000 0.000 1.505
47 141.00 1500.01 199 518 1.520 10000.000 0.000 1.505
48 144.00 1500.01 213 521 1.520 10000.000 0.000 1.505
49 147.00 1500.01 196 447 1.520 10000.000 0.000 1.505
50 150.00 1500.01 213 506 1.520 10000.000 0.000 1.505
51 153.00 1500.01 205 508 1.520 10000.000 0.000 1.505
52 156.00 1500.01 230 499 1.520 10000.000 0.000 1.505
53 159.00 1500.01 190 454 1.520 10000.000 0.000 1.505
54 162.00 1500.01 208 528 1.520 10000.000 0.000 1.505
55 165.00 1500.01 188 487 1.520 10000.000 0.000 1.505
56 168.00 1500.01 191 507 1.520 10000.000 0.000 1.505
57 171.00 1500.01 202 507 1.520 10000.000 0.000 1.505
58 174.00 1500.01 195 536 1.520 10000.000 0.000 1.505
59 177.00 1500.01 197 497 1.520 10000.000 0.000 1.505
60 180.00 1500.01 196 505 1.520 10000.000 0.000 1.505
61 183.00 1500.01 208 539 1.520 10000.000 0.000 1.505
62 186.00 1500.01 232 525 1.520 10000.000 0.000 1.505
63 189.00 1500.01 186 505 1.520 10000.000 0.000 1.505
64 192.00 1500.01 190 546 1.520 10000.000 0.000 1.505
65 195.00 1500.01 214 505 1.520 10000.000 0.000 1.505
66 198.00 1500.01 181 542 1.520 10000.000 0.000 1.505
67 201.00 1500.01 192 535 1.520 10000.000 0.000 1.505
68 204.00 1500.01 210 524 1.520 10000.000 0.000 1.505
69 207.00 1500.01 202 484 1.520 10000.000 0.000 1.505
70 210.00 1500.01 227 480 1.520 10000.000 0.000 1.505
71 213.00 1500.01 198 504 1.520 10000.000 0.000 1.505
72 216.00 1500.01 216 522 1.520 10000.000 0.000 1.505
73 219.00 1500.01 191 515 1.520 10000.000 0.000 1.505
74 222.00 1500.01 206 463 1.520 10000.000 0.000 1.505
75 225.00 1500.01 198 511 1.520 10000.000 0.000 1.505
76 228.00 1500.01 205 540 1.520 10000.000 0.000 1.505
77 231.00 1500.01 205 458 1.520 10000.000 0.000 1.505
78 234.00 1500.01 205 454 1.520 10000.000 0.000 1.505
79 237.00 1500.01 176 496 1.520 10000.000 0.000 1.505
80 240.00 1500.01 228 525 1.520 10000.000 0.000 1.505
81 243.00 1500.01 188 476 1.520 10000.000 0.000 1.505
82 246.00 1500.01 218 476 1.520 10000.000 0.000 1.505
83 249.00 1500.01 198 496 1.520 10000.000 0.000 1.505
84 252.00 1500.01 211 518 1.520 10000.000 0.000 1.505
85 255.00 1500.01 217 529 1.520 10000.000 0.000 1.505
86 258.00 1500.01 216 479 1.520 10000.000 0.000 1.505
87 261.00 1500.01 200 472 1.520 10000.000 0.000 1.505
88 264.00 1500.01 247 495 1.520 10000.000 0.000 1.505
89 267.00 1500.01 178 528 1.520 10000.000 0.000 1.505
90 270.00 1500.01 215 482 1.520 10000.000 0.000 1.505
91 273.00 1500.01 207 537 1.520 10000.000 0.000 1.505
92 276.00 1500.01 200 477 1.520 10000.000 0.000 1.505
93 279.00 1500.01 183 496 1.520 10000.000 0.000 1.505
94 282.00 1500.01 215 518 1.520 10000.000 0.000 1.505
95 285.00 1500.01 215 510 1.520 10000.000 0.000 1.505
96 288.00 1500.01 200 514 1.520 10000.000 0.000 1.505
97 291.00 1500.01 221 471 1.520 10000.000 0.000 1.505
98 294.00 1500.01 212 499 1.520 10000.000 0.000 1.505
99 297.00 1500.01 174 529 1.520 10000.000 0.000 1.505
100 300.00 1500.01 193 517 1.520 10000.000 0.000 1.505
101 303.00 1500.01 211 498 1.520 10000.000 0.000 1.505
102 306.00 1500.01 209 565 1.520 10000.000 0.000 1.505
103 309.00 1500.01 196 553 1.520 10000.000 0.000 1.505
104 312.00 1500.01 199 497 1.520 10000.000 0.000 1.505
105 315.00 1500.01 198 495 1.520 10000.000 0.000 1.505
106 318.00 1500.01 195 521 1.520 10000.000 0.000 1.505
107 321.00 1500.01 191 521 1.520 10000.000 0.000 1.505
108 324.00 1500.01 213 540 1.520 10000.000 0.000 1.505
109 327.00 1500.01 198 484 1.520 10000.000 0.000 1.505
110 330.00 1500.01 178 544 1.520 10000.000 0.000 1.505
111 333.00 1500.01 202 483 1.520 10000.000 0.000 1.505
112 336.00 1500.01 217 499 1.520 10000.000 0.000 1.505
113 339.00 1500.01 221 474 1.520 10000.000 0.000 1.505
114 342.00 1500.01 220 494 1.520 10000.000 0.000 1.505
115 345.00 1500.01 203 513 1.520 10000.000 0.000 1.505
116 348.00 1500.01 229 478 1.520 10000.000 0.000 1.505
117 351.00 1500.01 197 441 1.520 10000.000 0.000 1.505
118 354.00 1500.01 202 465 1.520 10000.000 0.000 1.505
119 357.00 1500.01 193 475 1.520 10000.000 0.000 1.505
120 360.00 1500.01 222 508 1.520 10000.000 0.000 1.505
121 363.00 1500.01 222 491 1.520 10000.000 0.000 1.505
122 366.00 1500.01 195 502 1.520 10000.000 0.000 1.505
123 369.00 1500.01 197 466 1.520 10000.000 0.000 1.505
124 372.00 1500.01 169 546 1.520 10000.000 0.000 1.505
125 375.00 1500.01 204 495 1.520 10000.000 0.000 1.505
126 378.00 1500.01 208 514 1.520 10000.000 0.000 1.505
127 381.00 1500.01 183 515 1.520 10000.000 0.000 1.505
128 384.00 1500.01 211 493 1.520 10000.000 0.000 1.505
129 387.00 1500.01 167 539 1.520 10000.000 0.000 1.505
130 390.00 1500.01 203 511 1.520 10000.000 0.000 1.505
131 393.00 1500.01 193 465 1.520 10000.000 0.000 1.505
132 396.00 1500.01 209 519 1.520 10000.000 0.000 1.505
133 399.00 1500.01 186 498 1.520 10000.000 0.000 1.505
134 402.00 1500.01 207 542 1.520 10000.000 0.000 1.505
135 405.00 1500.01 192 509 1.520 10000.000 0.000 1.505
136 408.00 1500.01 202 528 1.520 10000.000 0.000 1.505
137 411.00 1500.01 199 487 1.520 10000.000 0.000 1.505
138 414.00 1500.01 189 538 1.520 10000.000 0.000 1.505
139 417.00 1500.01 201 469 1.520 10000.000 0.000 1.505
140 420.00 1500.01 218 511 1.520 10000.000 0.000 1.505
141 423.00 1500.01 215 535 1.520 10000.000 0.000 1.505
142 426.00 1500.01 222 529 1.520 10000.000 0.000 1.505
143 429.00 1500.01 203 507 1.520 10000.000 0.000 1.505
144 432.00 1500.01 217 495 1.520 10000.000 0.000 1.505
