# BinNR microsec tot-time (s)  O-Beam AUX Ampl_1(V) f_1(Hz) phase_1(deg) Ampl_2(V) f_2(Hz) phase_2(deg) chi(pos)
0 0.00 1200.02 84 324 1.100 10000.000 0.000 -1.165
1 3.00 1200.02 164 589 1.100 10000.000 0.000 -1.165
2 6.00 1200.02 177 609 1.100 10000.000 0.000 -1.165
3 9.00 1200.02 179 618 1.100 10000.000 0.000 -1.165
4 12.00 1200.02 169 625 1.100 10000.000 0.000 -1.165
5 15.00 1200.02 170 552 1.100 10000.000 0.000 -1.165
6 18.00 1200.02 174 617 1.100 10000.000 0.000 -1.165
7 21.00 1200.02 169 608 1.100 10000.000 0.000 -1.165
8 24.00 1200.02 165 607 1.100 10000.000 0.000 -1.165
9 27.00 1200.02 165 615 1.100 10000.000 0.000 -1.165
10 30.00 1200.02 162 565 1.100 10000.000 0.000 -1.165
11 33.00 1200.02 199 608 1.100 10000.000 0.000 -1.165
12 36.00 1200.02 176 613 1.100 10000.000 0.000 -1.165
13 39.00 1200.02 199 624 1.100 10000.000 0.000 -1.165
14 42.00 1200.02 165 625 1.100 10000.000 0.000 -1.165
15 45.00 1200.02 179 598 1.100 10000.000 0.000 -1.165
16 48.00 1200.02 198 641 1.100 10000.000 0.000 -1.165
17 51.00 1200.02 189 635 1.100 10000.000 0.000 -1.165
18 54.00 1200.02 175 654 1.100 10000.000 0.000 -1.165
19 57.00 1200.02 187 669 1.100 10000.000 0.000 -1.165
20 60.00 1200.02 186 679 1.100 10000.000 0.000 -1.165
21 63.00 1200.02 201 669 1.100 10000.000 0.000 -1.165
22 66.00 1200.02 205 677 1.100 10000.000 0.000 -1.165
23 69.00 1200.02 186 688 1.100 10000.000 0.000 -1.165
24 72.00 1200.02 191 681 1.100 10000.000 0.000 -1.165
25 75.00 1200.02 208 679 1.100 10000.000 0.000 -1.165
26 78.00 1200.02 209 587 1.100 10000.000 0.000 -1.165
27 81.00 1200.02 182 660 1.100 10000.000 0.000 -1.165
28 84.00 1200.02 205 608 1.100 10000.000 0.000 -1.165
29 87.00 1200.02 189 646 1.100 10000.000 0.000 -1.165
30 90.00 1200.02 203 670 1.100 10000.000 0.000 -1.165
31 93.00 1200.02 168 621 1.100 10000.000 0.000 -1.165
32 96.00 1200.02 174 671 1.100 10000.000 0.000 -1.165
33 99.00 1200.02 165 626 1.100 10000.000 0.000 -1.165
34 102.00 1200.02 170 666 1.100 10000.000 0.000 -1.165
35 105.00 1200.02 184 620 1.100 10000.000 0.000 -1.165
36 108.00 1200.02 166 586 1.100 10000.000 0.000 -1.165
37 111.00 1200.02 196 584 1.100 10000.000 0.000 -1.165
38 114.00 1200.02 195 621 1.100 10000.000 0.000 -1.165
39 117.00 1200.02 162 593 1.100 10000.000 0.000 -1.165
40 120.00 1200.02 176 590 1.100 10000.000 0.000 -1.165
41 123.00 1200.02 169 584 1.100 10000.000 0.000 -1.165
42 126.00 1200.02 176 591 1.100 10000.000 0.000 -1.165
43 129.00 1200.02 173 582 1.100 10000.000 0.000 -1.165
44 132.00 1200.02 160 629 1.100 10000.000 0.000 -1.165
45 135.00 1200.02 182 576 1.100 10000.000 0.000 -1.165
46 138.00 1200.02 184 595 1.100 10000.000 0.000 -1.165
47 141.00 1200.02 204 616 1.100 10000.000 0.000 -1.165
48 144.00 1200.02 194 577 1.100 10000.000 0.000 -1.165
49 147.00 1200.02 181 632 1.100 10000.000 0.000 -1.165
50 150.00 1200.02 182 600 1.100 10000.000 0.000 -1.165
51 153.00 1200.02 174 614 1.100 10000.000 0.000 -1.165
52 156.00 1200.02 192 687 1.100 10000.000 0.000 -1.165
53 159.00 1200.02 186 642 1.100 10000.000 0.000 -1.165
54 162.00 1200.02 179 676 1.100 10000.000 0.000 -1.165
55 165.00 1200.02 204 625 1.100 10000.000 0.000 -1.165
56 168.00 1200.02 200 668 1.100 10000.000 0.000 -1.165
57 171.00 1200.02 182 646 1.100 10000.000 0.000 -1.165
58 174.00 1200.02 209 606 1.100 10000.000 0.000 -1.165
59 177.00 1200.02 197 640 1.100 10000.000 0.000 -1.165
60 180.00 1200.02 187 609 1.100 10000.000 0.000 -1.165
61 183.00 1200.02 191 687 1.100 10000.000 0.000 -1.165
62 186.00 1200.02 187 667 1.100 10000.000 0.000 -1.165
63 189.00 1200.02 191 653 1.100 10000.000 0.000 -1.165
64 192.00 1200.02 169 622 1.100 10000.000 0.000 -1.165
65 195.00 1200.02 175 659 1.100 10000.000 0.000 -1.165
66 198.00 1200.02 190 648 1.100 10000.000 0.000 -1.165
67 201.00 1200.02 153 625 1.100 10000.000 0.000 -1.165
68 204.00 1200.02 186 638 1.100 10000.000 0.000 -1.165
69 207.00 1200.02 184 616 1.100 10000.000 0.000 -1.165
70 210.00 1200.02 185 679 1.100 10000.000 0.000 -1.165
71 213.00 1200.02 168 583 1.100 10000.000 0.000 -1.165
72 216.00 1200.02 177 554 1.100 10000.000 0.000 -1.165
73 219.00 1200.02 187 589 1.100 10000.000 0.000 -1.165
74 222.00 1200.02 156 562 1.100 10000.000 0.000 -1.165
75 225.00 1200.02 189 567 1.100 10000.000 0.000 -1.165
76 228.00 1200.02 175 518 1.100 10000.000 0.000 -1.165
77 231.00 1200.02 168 533 1.100 10000.000 0.000 -1.165
78 234.00 1200.02 187 566 1.100 10000.000 0.000 -1.165
79 237.00 1200.02 181 594 1.100 10000.000 0.000 -1.165
80 240.00 1200.02 202 602 1.100 10000.000 0.000 -1.165
81 243.00 1200.02 166 582 1.100 10000.000 0.000 -1.165
82 246.00 1200.02 174 606 1.100 10000.000 0.000 -1.165
83 249.00 1200.02 181 638 1.100 10000.000 0.000 -1.165
84 252.00 1200.02 171 614 1.100 10000.000 0.000 -1.165
85 255.00 1200.02 181 560 1.100 10000.000 0.000 -1.165
86 258.00 1200.02 179 670 1.100 10000.000 0.000 -1.165
87 261.00 1200.02 193 620 1.100 10000.000 0.000 -1.165
88 264.00 1200.02 214 690 1.100 10000.000 0.000 -1.165
89 267.00 1200.02 191 617 1.100 10000.000 0.000 -1.165
90 270.00 1200.02 198 693 1.100 10000.000 0.000 -1.165
91 273.00 1200.02 203 658 1.100 10000.000 0.000 -1.165
92 276.00 1200.02 190 610 1.100 10000.000 0.000 -1.165
93 279.00 1200.02 183 652 1.100 10000.000 0.000 -1.165
94 282.00 1200.02 184 667 1.100 10000.000 0.000 -1.165
95 285.00 1200.02 185 631 1.100 10000.000 0.000 -1.165
96 288.00 1200.02 196 662 1.100 10000.000 0.000 -1.165
97 291.00 1200.02 193 612 1.100 10000.000 0.000 -1.165
98 294.00 1200.02 212 622 1.100 10000.000 0.000 -1.165
99 297.00 1200.02 204 635 1.100 10000.000 0.000 -1.165
100 300.00 1200.02 182 632 1.100 10000.000 0.000 -1.165
101 303.00 1200.02 147 616 1.100 10000.000 0.000 -1.165
102 306.00 1200.02 182 636 1.100 10000.000 0.000 -1.165
103 309.00 1200.02 184 588 1.100 10000.000 0.000 -1.165
104 312.00 1200.02 185 595 1.100 10000.000 0.000 -1.165
105 315.00 1200.02 170 579 1.100 10000.000 0.000 -1.165
106 318.00 1200.02 174 584 1.100 10000.000 0.000 -1.165
107 321.00 1200.02 163 575 1.100 10000.000 0.000 -1.165
108 324.00 1200.02 181 609 1.100 10000.000 0.000 -1.165
109 327.00 1200.02 142 605 1.100 10000.000 0.000 -1.165
110 330.00 1200.02 184 576 1.100 10000.000 0.000 -1.165
111 333.00 1200.02 167 577 1.100 10000.000 0.000 -1.165
112 336.00 1200.02 168 628 1.100 10000.000 0.000 -1.165
113 339.00 1200.02 161 621 1.100 10000.000 0.000 -1.165
114 342.00 1200.02 187 581 1.100 10000.000 0.000 -1.165
115 345.00 1200.02 160 588 1.100 10000.000 0.000 -1.165
116 348.00 1200.02 180 669 1.100 10000.000 0.000 -1.165
117 351.00 1200.02 177 657 1.100 10000.000 0.000 -1.165
118 354.00 1200.02 187 611 1.100 10000.000 0.000 -1.165
119 357.00 1200.02 175 629 1.100 10000.000 0.000 -1.165
120 360.00 1200.02 176 634 1.100 10000.000 0.000 -1.165
121 363.00 1200.02 180 643 1.100 10000.000 0.000 -1.165
122 366.00 1200.02 185 677 1.100 10000.000 0.000 -1.165
123 369.00 1200.02 201 669 1.100 10000.000 0.000 -1.165
124 372.00 1200.02 209 663 1.100 10000.000 0.000 -1.165
125 375.00 1200.02 178 635 1.100 10000.000 0.000 -1.165
126 378.00 1200.02 210 662 1.100 10000.000 0.000 -1.165
127 381.00 1200.02 179 693 1.100 10000.000 0.000 -1.165
128 384.00 1200.02 191 681 1.100 10000.000 0.000 -1.165
129 387.00 1200.02 188 653 1.100 10000.000 0.000 -1.165
130 390.00 1200.02 211 628 1.100 10000.000 0.000 -1.165
131 393.00 1200.02 171 666 1.100 10000.000 0.000 -1.165
132 396.00 1200.02 207 671 1.100 10000.000 0.000 -1.165
133 399.00 1200.02 187 665 1.100 10000.000 0.000 -1.165
134 402.00 1200.02 184 622 1.100 10000.000 0.000 -1.165
