# BinNR microsec tot-time (s)  O-Beam AUX Ampl(V) f(Hz) phase(deg) chi(pos)
1 1.00 2400.02 516 999 4.500 90000.000 0.000 0.703
2 2.00 2400.02 505 1122 4.500 90000.000 0.000 0.703
3 3.00 2400.02 461 966 4.500 90000.000 0.000 0.703
4 4.00 2400.02 511 1039 4.500 90000.000 0.000 0.703
5 5.00 2400.02 484 996 4.500 90000.000 0.000 0.703
6 6.00 2400.02 520 1023 4.500 90000.000 0.000 0.703
7 7.00 2400.02 457 1023 4.500 90000.000 0.000 0.703
8 8.00 2400.02 486 1048 4.500 90000.000 0.000 0.703
9 9.00 2400.02 470 921 4.500 90000.000 0.000 0.703
10 10.00 2400.02 523 1022 4.500 90000.000 0.000 0.703
11 11.00 2400.02 426 996 4.500 90000.000 0.000 0.703
12 12.00 2400.02 494 1043 4.500 90000.000 0.000 0.703
13 13.00 2400.02 476 1014 4.500 90000.000 0.000 0.703
14 14.00 2400.02 491 1075 4.500 90000.000 0.000 0.703
15 15.00 2400.02 468 969 4.500 90000.000 0.000 0.703
16 16.00 2400.02 511 1056 4.500 90000.000 0.000 0.703
17 17.00 2400.02 499 991 4.500 90000.000 0.000 0.703
18 18.00 2400.02 510 1005 4.500 90000.000 0.000 0.703
19 19.00 2400.02 511 964 4.500 90000.000 0.000 0.703
20 20.00 2400.02 515 1072 4.500 90000.000 0.000 0.703
21 21.00 2400.02 485 973 4.500 90000.000 0.000 0.703
22 22.00 2400.02 497 1082 4.500 90000.000 0.000 0.703
23 23.00 2400.02 464 1030 4.500 90000.000 0.000 0.703
24 24.00 2400.02 510 1118 4.500 90000.000 0.000 0.703
25 25.00 2400.02 491 985 4.500 90000.000 0.000 0.703
26 26.00 2400.02 481 1026 4.500 90000.000 0.000 0.703
27 27.00 2400.02 503 999 4.500 90000.000 0.000 0.703
28 28.00 2400.02 489 1056 4.500 90000.000 0.000 0.703
29 29.00 2400.02 453 1045 4.500 90000.000 0.000 0.703
30 30.00 2400.02 527 1005 4.500 90000.000 0.000 0.703
31 31.00 2400.02 472 972 4.500 90000.000 0.000 0.703
32 32.00 2400.02 514 1078 4.500 90000.000 0.000 0.703
33 33.00 2400.02 485 1037 4.500 90000.000 0.000 0.703
34 34.00 2400.02 482 1167 4.500 90000.000 0.000 0.703
35 35.00 2400.02 469 1030 4.500 90000.000 0.000 0.703
36 36.00 2400.02 516 1075 4.500 90000.000 0.000 0.703
37 37.00 2400.02 482 1004 4.500 90000.000 0.000 0.703
38 38.00 2400.02 442 1083 4.500 90000.000 0.000 0.703
39 39.00 2400.02 484 1004 4.500 90000.000 0.000 0.703
40 40.00 2400.02 483 1052 4.500 90000.000 0.000 0.703
41 41.00 2400.02 484 1008 4.500 90000.000 0.000 0.703
42 42.00 2400.02 512 1019 4.500 90000.000 0.000 0.703
43 43.00 2400.02 469 947 4.500 90000.000 0.000 0.703
44 44.00 2400.02 478 1024 4.500 90000.000 0.000 0.703
45 45.00 2400.02 499 1012 4.500 90000.000 0.000 0.703
46 46.00 2400.02 483 1032 4.500 90000.000 0.000 0.703
47 47.00 2400.02 470 960 4.500 90000.000 0.000 0.703
48 48.00 2400.02 511 1039 4.500 90000.000 0.000 0.703
49 49.00 2400.02 500 1059 4.500 90000.000 0.000 0.703
50 50.00 2400.02 460 1038 4.500 90000.000 0.000 0.703
51 51.00 2400.02 464 1032 4.500 90000.000 0.000 0.703
52 52.00 2400.02 468 1071 4.500 90000.000 0.000 0.703
53 53.00 2400.02 464 964 4.500 90000.000 0.000 0.703
54 54.00 2400.02 486 1095 4.500 90000.000 0.000 0.703
55 55.00 2400.02 494 1023 4.500 90000.000 0.000 0.703
56 56.00 2400.02 490 1085 4.500 90000.000 0.000 0.703
57 57.00 2400.02 506 1026 4.500 90000.000 0.000 0.703
58 58.00 2400.02 488 1064 4.500 90000.000 0.000 0.703
59 59.00 2400.02 517 982 4.500 90000.000 0.000 0.703
60 60.00 2400.02 481 1018 4.500 90000.000 0.000 0.703
61 61.00 2400.02 472 1067 4.500 90000.000 0.000 0.703
62 62.00 2400.02 474 1027 4.500 90000.000 0.000 0.703
63 63.00 2400.02 521 1007 4.500 90000.000 0.000 0.703
64 64.00 2400.02 475 1016 4.500 90000.000 0.000 0.703
65 65.00 2400.02 515 1014 4.500 90000.000 0.000 0.703
66 66.00 2400.02 494 1043 4.500 90000.000 0.000 0.703
67 67.00 2400.02 508 962 4.500 90000.000 0.000 0.703
68 68.00 2400.02 488 981 4.500 90000.000 0.000 0.703
69 69.00 2400.02 466 997 4.500 90000.000 0.000 0.703
70 70.00 2400.02 484 1074 4.500 90000.000 0.000 0.703
71 71.00 2400.02 462 1012 4.500 90000.000 0.000 0.703
72 72.00 2400.02 450 1106 4.500 90000.000 0.000 0.703
73 73.00 2400.02 484 1012 4.500 90000.000 0.000 0.703
74 74.00 2400.02 438 1067 4.500 90000.000 0.000 0.703
75 75.00 2400.02 466 951 4.500 90000.000 0.000 0.703
76 76.00 2400.02 498 1041 4.500 90000.000 0.000 0.703
77 77.00 2400.02 472 1005 4.500 90000.000 0.000 0.703
78 78.00 2400.02 518 1032 4.500 90000.000 0.000 0.703
79 79.00 2400.02 479 1029 4.500 90000.000 0.000 0.703
80 80.00 2400.02 533 1081 4.500 90000.000 0.000 0.703
81 81.00 2400.02 507 1031 4.500 90000.000 0.000 0.703
82 82.00 2400.02 486 1034 4.500 90000.000 0.000 0.703
83 83.00 2400.02 483 931 4.500 90000.000 0.000 0.703
84 84.00 2400.02 498 1069 4.500 90000.000 0.000 0.703
85 85.00 2400.02 469 956 4.500 90000.000 0.000 0.703
86 86.00 2400.02 501 985 4.500 90000.000 0.000 0.703
87 87.00 2400.02 449 975 4.500 90000.000 0.000 0.703
88 88.00 2400.02 483 1016 4.500 90000.000 0.000 0.703
89 89.00 2400.02 502 968 4.500 90000.000 0.000 0.703
90 90.00 2400.02 475 1077 4.500 90000.000 0.000 0.703
91 91.00 2400.02 497 1035 4.500 90000.000 0.000 0.703
92 92.00 2400.02 510 1077 4.500 90000.000 0.000 0.703
93 93.00 2400.02 469 1057 4.500 90000.000 0.000 0.703
94 94.00 2400.02 543 1079 4.500 90000.000 0.000 0.703
95 95.00 2400.02 511 993 4.500 90000.000 0.000 0.703
96 96.00 2400.02 529 1092 4.500 90000.000 0.000 0.703
97 97.00 2400.02 448 981 4.500 90000.000 0.000 0.703
98 98.00 2400.02 512 1041 4.500 90000.000 0.000 0.703
99 99.00 2400.02 482 959 4.500 90000.000 0.000 0.703
100 100.00 2400.02 514 1032 4.500 90000.000 0.000 0.703
101 101.00 2400.02 487 956 4.500 90000.000 0.000 0.703
102 102.00 2400.02 483 1018 4.500 90000.000 0.000 0.703
