# BinNR microsec tot-time (s)  O-Beam AUX Ampl(V) f(Hz) phase(deg) chi(pos)
0 0.00 1200.01 100 365 1.100 10000.000 0.000 1.000
1 3.00 1200.01 211 788 1.100 10000.000 0.000 1.000
2 6.00 1200.01 201 744 1.100 10000.000 0.000 1.000
3 9.00 1200.01 203 669 1.100 10000.000 0.000 1.000
4 12.00 1200.01 171 704 1.100 10000.000 0.000 1.000
5 15.00 1200.01 164 621 1.100 10000.000 0.000 1.000
6 18.00 1200.01 163 703 1.100 10000.000 0.000 1.000
7 21.00 1200.01 193 686 1.100 10000.000 0.000 1.000
8 24.00 1200.01 188 691 1.100 10000.000 0.000 1.000
9 27.00 1200.01 165 659 1.100 10000.000 0.000 1.000
10 30.00 1200.01 178 699 1.100 10000.000 0.000 1.000
11 33.00 1200.01 172 673 1.100 10000.000 0.000 1.000
12 36.00 1200.01 184 657 1.100 10000.000 0.000 1.000
13 39.00 1200.01 176 657 1.100 10000.000 0.000 1.000
14 42.00 1200.01 198 697 1.100 10000.000 0.000 1.000
15 45.00 1200.01 203 749 1.100 10000.000 0.000 1.000
16 48.00 1200.01 207 730 1.100 10000.000 0.000 1.000
17 51.00 1200.01 198 771 1.100 10000.000 0.000 1.000
18 54.00 1200.01 223 774 1.100 10000.000 0.000 1.000
19 57.00 1200.01 225 691 1.100 10000.000 0.000 1.000
20 60.00 1200.01 210 705 1.100 10000.000 0.000 1.000
21 63.00 1200.01 213 736 1.100 10000.000 0.000 1.000
22 66.00 1200.01 228 672 1.100 10000.000 0.000 1.000
23 69.00 1200.01 238 653 1.100 10000.000 0.000 1.000
24 72.00 1200.01 242 636 1.100 10000.000 0.000 1.000
25 75.00 1200.01 236 624 1.100 10000.000 0.000 1.000
26 78.00 1200.01 221 605 1.100 10000.000 0.000 1.000
27 81.00 1200.01 216 638 1.100 10000.000 0.000 1.000
28 84.00 1200.01 226 654 1.100 10000.000 0.000 1.000
29 87.00 1200.01 232 606 1.100 10000.000 0.000 1.000
30 90.00 1200.01 232 667 1.100 10000.000 0.000 1.000
31 93.00 1200.01 233 617 1.100 10000.000 0.000 1.000
32 96.00 1200.01 214 630 1.100 10000.000 0.000 1.000
33 99.00 1200.01 181 645 1.100 10000.000 0.000 1.000
34 102.00 1200.01 173 643 1.100 10000.000 0.000 1.000
35 105.00 1200.01 215 629 1.100 10000.000 0.000 1.000
36 108.00 1200.01 227 712 1.100 10000.000 0.000 1.000
37 111.00 1200.01 200 722 1.100 10000.000 0.000 1.000
38 114.00 1200.01 198 704 1.100 10000.000 0.000 1.000
39 117.00 1200.01 188 686 1.100 10000.000 0.000 1.000
40 120.00 1200.01 173 728 1.100 10000.000 0.000 1.000
41 123.00 1200.01 183 705 1.100 10000.000 0.000 1.000
42 126.00 1200.01 195 752 1.100 10000.000 0.000 1.000
43 129.00 1200.01 170 707 1.100 10000.000 0.000 1.000
44 132.00 1200.01 183 762 1.100 10000.000 0.000 1.000
45 135.00 1200.01 195 741 1.100 10000.000 0.000 1.000
46 138.00 1200.01 186 771 1.100 10000.000 0.000 1.000
47 141.00 1200.01 195 719 1.100 10000.000 0.000 1.000
48 144.00 1200.01 205 720 1.100 10000.000 0.000 1.000
49 147.00 1200.01 180 732 1.100 10000.000 0.000 1.000
50 150.00 1200.01 202 752 1.100 10000.000 0.000 1.000
51 153.00 1200.01 193 730 1.100 10000.000 0.000 1.000
52 156.00 1200.01 215 705 1.100 10000.000 0.000 1.000
53 159.00 1200.01 209 693 1.100 10000.000 0.000 1.000
54 162.00 1200.01 201 615 1.100 10000.000 0.000 1.000
55 165.00 1200.01 211 730 1.100 10000.000 0.000 1.000
56 168.00 1200.01 202 683 1.100 10000.000 0.000 1.000
57 171.00 1200.01 218 648 1.100 10000.000 0.000 1.000
58 174.00 1200.01 218 639 1.100 10000.000 0.000 1.000
59 177.00 1200.01 236 642 1.100 10000.000 0.000 1.000
60 180.00 1200.01 219 603 1.100 10000.000 0.000 1.000
61 183.00 1200.01 227 564 1.100 10000.000 0.000 1.000
62 186.00 1200.01 235 564 1.100 10000.000 0.000 1.000
63 189.00 1200.01 227 586 1.100 10000.000 0.000 1.000
64 192.00 1200.01 211 633 1.100 10000.000 0.000 1.000
65 195.00 1200.01 193 614 1.100 10000.000 0.000 1.000
66 198.00 1200.01 186 601 1.100 10000.000 0.000 1.000
67 201.00 1200.01 195 571 1.100 10000.000 0.000 1.000
68 204.00 1200.01 183 634 1.100 10000.000 0.000 1.000
69 207.00 1200.01 189 700 1.100 10000.000 0.000 1.000
70 210.00 1200.01 177 665 1.100 10000.000 0.000 1.000
71 213.00 1200.01 182 719 1.100 10000.000 0.000 1.000
72 216.00 1200.01 190 694 1.100 10000.000 0.000 1.000
73 219.00 1200.01 179 741 1.100 10000.000 0.000 1.000
74 222.00 1200.01 203 734 1.100 10000.000 0.000 1.000
75 225.00 1200.01 176 752 1.100 10000.000 0.000 1.000
76 228.00 1200.01 188 776 1.100 10000.000 0.000 1.000
77 231.00 1200.01 172 784 1.100 10000.000 0.000 1.000
78 234.00 1200.01 181 786 1.100 10000.000 0.000 1.000
79 237.00 1200.01 171 697 1.100 10000.000 0.000 1.000
80 240.00 1200.01 197 759 1.100 10000.000 0.000 1.000
81 243.00 1200.01 192 718 1.100 10000.000 0.000 1.000
82 246.00 1200.01 201 733 1.100 10000.000 0.000 1.000
83 249.00 1200.01 188 774 1.100 10000.000 0.000 1.000
84 252.00 1200.01 196 754 1.100 10000.000 0.000 1.000
85 255.00 1200.01 211 726 1.100 10000.000 0.000 1.000
86 258.00 1200.01 227 748 1.100 10000.000 0.000 1.000
87 261.00 1200.01 199 678 1.100 10000.000 0.000 1.000
88 264.00 1200.01 246 701 1.100 10000.000 0.000 1.000
89 267.00 1200.01 219 719 1.100 10000.000 0.000 1.000
90 270.00 1200.01 212 688 1.100 10000.000 0.000 1.000
91 273.00 1200.01 200 602 1.100 10000.000 0.000 1.000
92 276.00 1200.01 205 671 1.100 10000.000 0.000 1.000
93 279.00 1200.01 226 623 1.100 10000.000 0.000 1.000
94 282.00 1200.01 190 634 1.100 10000.000 0.000 1.000
95 285.00 1200.01 217 556 1.100 10000.000 0.000 1.000
96 288.00 1200.01 205 560 1.100 10000.000 0.000 1.000
97 291.00 1200.01 209 613 1.100 10000.000 0.000 1.000
98 294.00 1200.01 201 600 1.100 10000.000 0.000 1.000
99 297.00 1200.01 199 568 1.100 10000.000 0.000 1.000
100 300.00 1200.01 189 622 1.100 10000.000 0.000 1.000
101 303.00 1200.01 196 623 1.100 10000.000 0.000 1.000
102 306.00 1200.01 200 621 1.100 10000.000 0.000 1.000
103 309.00 1200.01 194 663 1.100 10000.000 0.000 1.000
104 312.00 1200.01 222 668 1.100 10000.000 0.000 1.000
105 315.00 1200.01 205 679 1.100 10000.000 0.000 1.000
106 318.00 1200.01 216 722 1.100 10000.000 0.000 1.000
107 321.00 1200.01 204 707 1.100 10000.000 0.000 1.000
108 324.00 1200.01 243 719 1.100 10000.000 0.000 1.000
109 327.00 1200.01 216 754 1.100 10000.000 0.000 1.000
110 330.00 1200.01 203 700 1.100 10000.000 0.000 1.000
111 333.00 1200.01 217 724 1.100 10000.000 0.000 1.000
112 336.00 1200.01 208 773 1.100 10000.000 0.000 1.000
113 339.00 1200.01 179 761 1.100 10000.000 0.000 1.000
114 342.00 1200.01 177 756 1.100 10000.000 0.000 1.000
115 345.00 1200.01 175 774 1.100 10000.000 0.000 1.000
116 348.00 1200.01 196 750 1.100 10000.000 0.000 1.000
117 351.00 1200.01 173 739 1.100 10000.000 0.000 1.000
118 354.00 1200.01 180 695 1.100 10000.000 0.000 1.000
119 357.00 1200.01 176 660 1.100 10000.000 0.000 1.000
120 360.00 1200.01 210 712 1.100 10000.000 0.000 1.000
121 363.00 1200.01 183 666 1.100 10000.000 0.000 1.000
122 366.00 1200.01 183 670 1.100 10000.000 0.000 1.000
123 369.00 1200.01 185 676 1.100 10000.000 0.000 1.000
124 372.00 1200.01 191 668 1.100 10000.000 0.000 1.000
125 375.00 1200.01 202 638 1.100 10000.000 0.000 1.000
126 378.00 1200.01 216 629 1.100 10000.000 0.000 1.000
127 381.00 1200.01 215 577 1.100 10000.000 0.000 1.000
128 384.00 1200.01 205 584 1.100 10000.000 0.000 1.000
129 387.00 1200.01 207 577 1.100 10000.000 0.000 1.000
130 390.00 1200.01 225 610 1.100 10000.000 0.000 1.000
131 393.00 1200.01 245 593 1.100 10000.000 0.000 1.000
132 396.00 1200.01 232 624 1.100 10000.000 0.000 1.000
133 399.00 1200.01 202 615 1.100 10000.000 0.000 1.000
134 402.00 1200.01 213 593 1.100 10000.000 0.000 1.000
135 405.00 1200.01 210 637 1.100 10000.000 0.000 1.000
136 408.00 1200.01 197 662 1.100 10000.000 0.000 1.000
137 411.00 1200.01 214 657 1.100 10000.000 0.000 1.000
138 414.00 1200.01 236 661 1.100 10000.000 0.000 1.000
139 417.00 1200.01 202 703 1.100 10000.000 0.000 1.000
140 420.00 1200.01 215 674 1.100 10000.000 0.000 1.000
141 423.00 1200.01 189 739 1.100 10000.000 0.000 1.000
142 426.00 1200.01 218 740 1.100 10000.000 0.000 1.000
143 429.00 1200.01 223 718 1.100 10000.000 0.000 1.000
144 432.00 1200.01 203 748 1.100 10000.000 0.000 1.000
