# BinNR microsec tot-time (s)  O-Beam AUX Ampl(V) f(Hz) phase(deg) chi(pos)
0 0.00 1200.00 130 468 1.100 10000.000 0.000 -0.835
1 3.00 1200.00 292 929 1.100 10000.000 0.000 -0.835
2 6.00 1200.00 273 1018 1.100 10000.000 0.000 -0.835
3 9.00 1200.00 272 925 1.100 10000.000 0.000 -0.835
4 12.00 1200.00 301 896 1.100 10000.000 0.000 -0.835
5 15.00 1200.00 290 937 1.100 10000.000 0.000 -0.835
6 18.00 1200.00 263 910 1.100 10000.000 0.000 -0.835
7 21.00 1200.00 278 944 1.100 10000.000 0.000 -0.835
8 24.00 1200.00 292 923 1.100 10000.000 0.000 -0.835
9 27.00 1200.00 235 909 1.100 10000.000 0.000 -0.835
10 30.00 1200.00 286 892 1.100 10000.000 0.000 -0.835
11 33.00 1200.00 275 904 1.100 10000.000 0.000 -0.835
12 36.00 1200.00 296 973 1.100 10000.000 0.000 -0.835
13 39.00 1200.00 288 973 1.100 10000.000 0.000 -0.835
14 42.00 1200.00 253 945 1.100 10000.000 0.000 -0.835
15 45.00 1200.00 279 985 1.100 10000.000 0.000 -0.835
16 48.00 1200.00 273 953 1.100 10000.000 0.000 -0.835
17 51.00 1200.00 273 970 1.100 10000.000 0.000 -0.835
18 54.00 1200.00 280 933 1.100 10000.000 0.000 -0.835
19 57.00 1200.00 315 870 1.100 10000.000 0.000 -0.835
20 60.00 1200.00 313 902 1.100 10000.000 0.000 -0.835
21 63.00 1200.00 305 923 1.100 10000.000 0.000 -0.835
22 66.00 1200.00 307 937 1.100 10000.000 0.000 -0.835
23 69.00 1200.00 269 882 1.100 10000.000 0.000 -0.835
24 72.00 1200.00 309 893 1.100 10000.000 0.000 -0.835
25 75.00 1200.00 325 948 1.100 10000.000 0.000 -0.835
26 78.00 1200.00 325 880 1.100 10000.000 0.000 -0.835
27 81.00 1200.00 323 888 1.100 10000.000 0.000 -0.835
28 84.00 1200.00 276 910 1.100 10000.000 0.000 -0.835
29 87.00 1200.00 299 907 1.100 10000.000 0.000 -0.835
30 90.00 1200.00 312 885 1.100 10000.000 0.000 -0.835
31 93.00 1200.00 289 823 1.100 10000.000 0.000 -0.835
32 96.00 1200.00 300 943 1.100 10000.000 0.000 -0.835
33 99.00 1200.00 278 803 1.100 10000.000 0.000 -0.835
34 102.00 1200.00 301 890 1.100 10000.000 0.000 -0.835
35 105.00 1200.00 266 887 1.100 10000.000 0.000 -0.835
36 108.00 1200.00 297 873 1.100 10000.000 0.000 -0.835
37 111.00 1200.00 315 894 1.100 10000.000 0.000 -0.835
38 114.00 1200.00 269 859 1.100 10000.000 0.000 -0.835
39 117.00 1200.00 296 886 1.100 10000.000 0.000 -0.835
40 120.00 1200.00 248 915 1.100 10000.000 0.000 -0.835
41 123.00 1200.00 267 1034 1.100 10000.000 0.000 -0.835
42 126.00 1200.00 301 952 1.100 10000.000 0.000 -0.835
43 129.00 1200.00 265 902 1.100 10000.000 0.000 -0.835
44 132.00 1200.00 303 966 1.100 10000.000 0.000 -0.835
45 135.00 1200.00 278 963 1.100 10000.000 0.000 -0.835
46 138.00 1200.00 264 1027 1.100 10000.000 0.000 -0.835
47 141.00 1200.00 274 925 1.100 10000.000 0.000 -0.835
48 144.00 1200.00 296 973 1.100 10000.000 0.000 -0.835
49 147.00 1200.00 300 1006 1.100 10000.000 0.000 -0.835
50 150.00 1200.00 281 996 1.100 10000.000 0.000 -0.835
51 153.00 1200.00 285 994 1.100 10000.000 0.000 -0.835
52 156.00 1200.00 294 979 1.100 10000.000 0.000 -0.835
53 159.00 1200.00 266 881 1.100 10000.000 0.000 -0.835
54 162.00 1200.00 335 906 1.100 10000.000 0.000 -0.835
55 165.00 1200.00 317 903 1.100 10000.000 0.000 -0.835
56 168.00 1200.00 286 919 1.100 10000.000 0.000 -0.835
57 171.00 1200.00 313 946 1.100 10000.000 0.000 -0.835
58 174.00 1200.00 278 979 1.100 10000.000 0.000 -0.835
59 177.00 1200.00 323 924 1.100 10000.000 0.000 -0.835
60 180.00 1200.00 310 849 1.100 10000.000 0.000 -0.835
61 183.00 1200.00 287 825 1.100 10000.000 0.000 -0.835
62 186.00 1200.00 286 867 1.100 10000.000 0.000 -0.835
63 189.00 1200.00 262 889 1.100 10000.000 0.000 -0.835
64 192.00 1200.00 321 900 1.100 10000.000 0.000 -0.835
65 195.00 1200.00 305 812 1.100 10000.000 0.000 -0.835
66 198.00 1200.00 317 930 1.100 10000.000 0.000 -0.835
67 201.00 1200.00 300 900 1.100 10000.000 0.000 -0.835
68 204.00 1200.00 279 930 1.100 10000.000 0.000 -0.835
69 207.00 1200.00 330 843 1.100 10000.000 0.000 -0.835
70 210.00 1200.00 315 877 1.100 10000.000 0.000 -0.835
71 213.00 1200.00 268 897 1.100 10000.000 0.000 -0.835
72 216.00 1200.00 292 948 1.100 10000.000 0.000 -0.835
73 219.00 1200.00 254 894 1.100 10000.000 0.000 -0.835
74 222.00 1200.00 264 916 1.100 10000.000 0.000 -0.835
75 225.00 1200.00 253 958 1.100 10000.000 0.000 -0.835
76 228.00 1200.00 275 954 1.100 10000.000 0.000 -0.835
77 231.00 1200.00 257 938 1.100 10000.000 0.000 -0.835
78 234.00 1200.00 292 956 1.100 10000.000 0.000 -0.835
79 237.00 1200.00 299 924 1.100 10000.000 0.000 -0.835
80 240.00 1200.00 266 976 1.100 10000.000 0.000 -0.835
81 243.00 1200.00 286 913 1.100 10000.000 0.000 -0.835
82 246.00 1200.00 275 914 1.100 10000.000 0.000 -0.835
83 249.00 1200.00 305 958 1.100 10000.000 0.000 -0.835
84 252.00 1200.00 255 938 1.100 10000.000 0.000 -0.835
85 255.00 1200.00 275 947 1.100 10000.000 0.000 -0.835
86 258.00 1200.00 301 925 1.100 10000.000 0.000 -0.835
87 261.00 1200.00 295 986 1.100 10000.000 0.000 -0.835
88 264.00 1200.00 318 929 1.100 10000.000 0.000 -0.835
89 267.00 1200.00 300 924 1.100 10000.000 0.000 -0.835
90 270.00 1200.00 293 846 1.100 10000.000 0.000 -0.835
91 273.00 1200.00 286 857 1.100 10000.000 0.000 -0.835
92 276.00 1200.00 296 879 1.100 10000.000 0.000 -0.835
93 279.00 1200.00 278 894 1.100 10000.000 0.000 -0.835
94 282.00 1200.00 301 883 1.100 10000.000 0.000 -0.835
95 285.00 1200.00 256 837 1.100 10000.000 0.000 -0.835
96 288.00 1200.00 316 852 1.100 10000.000 0.000 -0.835
97 291.00 1200.00 275 860 1.100 10000.000 0.000 -0.835
98 294.00 1200.00 261 908 1.100 10000.000 0.000 -0.835
99 297.00 1200.00 311 885 1.100 10000.000 0.000 -0.835
100 300.00 1200.00 263 860 1.100 10000.000 0.000 -0.835
101 303.00 1200.00 292 832 1.100 10000.000 0.000 -0.835
102 306.00 1200.00 300 908 1.100 10000.000 0.000 -0.835
103 309.00 1200.00 275 913 1.100 10000.000 0.000 -0.835
104 312.00 1200.00 285 901 1.100 10000.000 0.000 -0.835
105 315.00 1200.00 293 927 1.100 10000.000 0.000 -0.835
106 318.00 1200.00 321 913 1.100 10000.000 0.000 -0.835
107 321.00 1200.00 264 917 1.100 10000.000 0.000 -0.835
108 324.00 1200.00 316 978 1.100 10000.000 0.000 -0.835
109 327.00 1200.00 291 1023 1.100 10000.000 0.000 -0.835
110 330.00 1200.00 281 936 1.100 10000.000 0.000 -0.835
111 333.00 1200.00 273 968 1.100 10000.000 0.000 -0.835
112 336.00 1200.00 303 956 1.100 10000.000 0.000 -0.835
113 339.00 1200.00 270 984 1.100 10000.000 0.000 -0.835
114 342.00 1200.00 267 943 1.100 10000.000 0.000 -0.835
115 345.00 1200.00 277 887 1.100 10000.000 0.000 -0.835
116 348.00 1200.00 286 942 1.100 10000.000 0.000 -0.835
117 351.00 1200.00 278 973 1.100 10000.000 0.000 -0.835
118 354.00 1200.00 295 948 1.100 10000.000 0.000 -0.835
119 357.00 1200.00 256 963 1.100 10000.000 0.000 -0.835
120 360.00 1200.00 294 933 1.100 10000.000 0.000 -0.835
121 363.00 1200.00 255 964 1.100 10000.000 0.000 -0.835
122 366.00 1200.00 293 932 1.100 10000.000 0.000 -0.835
123 369.00 1200.00 258 922 1.100 10000.000 0.000 -0.835
124 372.00 1200.00 255 909 1.100 10000.000 0.000 -0.835
125 375.00 1200.00 245 872 1.100 10000.000 0.000 -0.835
126 378.00 1200.00 307 891 1.100 10000.000 0.000 -0.835
127 381.00 1200.00 286 864 1.100 10000.000 0.000 -0.835
128 384.00 1200.00 281 849 1.100 10000.000 0.000 -0.835
129 387.00 1200.00 263 850 1.100 10000.000 0.000 -0.835
130 390.00 1200.00 298 893 1.100 10000.000 0.000 -0.835
131 393.00 1200.00 287 932 1.100 10000.000 0.000 -0.835
132 396.00 1200.00 303 818 1.100 10000.000 0.000 -0.835
133 399.00 1200.00 329 871 1.100 10000.000 0.000 -0.835
134 402.00 1200.00 303 824 1.100 10000.000 0.000 -0.835
135 405.00 1200.00 289 880 1.100 10000.000 0.000 -0.835
136 408.00 1200.00 303 912 1.100 10000.000 0.000 -0.835
137 411.00 1200.00 312 912 1.100 10000.000 0.000 -0.835
138 414.00 1200.00 300 889 1.100 10000.000 0.000 -0.835
139 417.00 1200.00 322 914 1.100 10000.000 0.000 -0.835
140 420.00 1200.00 293 962 1.100 10000.000 0.000 -0.835
141 423.00 1200.00 278 918 1.100 10000.000 0.000 -0.835
142 426.00 1200.00 291 1001 1.100 10000.000 0.000 -0.835
143 429.00 1200.00 257 960 1.100 10000.000 0.000 -0.835
144 432.00 1200.00 290 938 1.100 10000.000 0.000 -0.835
