# BinNR microsec tot-time (s)  O-Beam AUX Ampl(V) f(Hz) phase(deg) chi(pos)
0 0.00 1200.01 80 70 1.100 10000.000 0.000 0.154
1 3.00 1200.01 119 182 1.100 10000.000 0.000 0.154
2 6.00 1200.01 150 186 1.100 10000.000 0.000 0.154
3 9.00 1200.01 160 166 1.100 10000.000 0.000 0.154
4 12.00 1200.01 144 188 1.100 10000.000 0.000 0.154
5 15.00 1200.01 183 218 1.100 10000.000 0.000 0.154
6 18.00 1200.01 164 216 1.100 10000.000 0.000 0.154
7 21.00 1200.01 141 228 1.100 10000.000 0.000 0.154
8 24.00 1200.01 189 221 1.100 10000.000 0.000 0.154
9 27.00 1200.01 163 198 1.100 10000.000 0.000 0.154
10 30.00 1200.01 194 191 1.100 10000.000 0.000 0.154
11 33.00 1200.01 150 207 1.100 10000.000 0.000 0.154
12 36.00 1200.01 155 184 1.100 10000.000 0.000 0.154
13 39.00 1200.01 160 194 1.100 10000.000 0.000 0.154
14 42.00 1200.01 129 178 1.100 10000.000 0.000 0.154
15 45.00 1200.01 159 167 1.100 10000.000 0.000 0.154
16 48.00 1200.01 168 173 1.100 10000.000 0.000 0.154
17 51.00 1200.01 159 177 1.100 10000.000 0.000 0.154
18 54.00 1200.01 143 170 1.100 10000.000 0.000 0.154
19 57.00 1200.01 137 163 1.100 10000.000 0.000 0.154
20 60.00 1200.01 120 160 1.100 10000.000 0.000 0.154
21 63.00 1200.01 137 197 1.100 10000.000 0.000 0.154
22 66.00 1200.01 119 224 1.100 10000.000 0.000 0.154
23 69.00 1200.01 110 216 1.100 10000.000 0.000 0.154
24 72.00 1200.01 143 236 1.100 10000.000 0.000 0.154
25 75.00 1200.01 125 234 1.100 10000.000 0.000 0.154
26 78.00 1200.01 129 256 1.100 10000.000 0.000 0.154
27 81.00 1200.01 121 253 1.100 10000.000 0.000 0.154
28 84.00 1200.01 129 242 1.100 10000.000 0.000 0.154
29 87.00 1200.01 102 254 1.100 10000.000 0.000 0.154
30 90.00 1200.01 153 275 1.100 10000.000 0.000 0.154
31 93.00 1200.01 107 228 1.100 10000.000 0.000 0.154
32 96.00 1200.01 142 307 1.100 10000.000 0.000 0.154
33 99.00 1200.01 148 252 1.100 10000.000 0.000 0.154
34 102.00 1200.01 151 242 1.100 10000.000 0.000 0.154
35 105.00 1200.01 160 217 1.100 10000.000 0.000 0.154
36 108.00 1200.01 143 230 1.100 10000.000 0.000 0.154
37 111.00 1200.01 160 182 1.100 10000.000 0.000 0.154
38 114.00 1200.01 155 216 1.100 10000.000 0.000 0.154
39 117.00 1200.01 158 168 1.100 10000.000 0.000 0.154
40 120.00 1200.01 174 182 1.100 10000.000 0.000 0.154
41 123.00 1200.01 169 176 1.100 10000.000 0.000 0.154
42 126.00 1200.01 181 158 1.100 10000.000 0.000 0.154
43 129.00 1200.01 166 161 1.100 10000.000 0.000 0.154
44 132.00 1200.01 147 186 1.100 10000.000 0.000 0.154
45 135.00 1200.01 164 180 1.100 10000.000 0.000 0.154
46 138.00 1200.01 157 145 1.100 10000.000 0.000 0.154
47 141.00 1200.01 172 160 1.100 10000.000 0.000 0.154
48 144.00 1200.01 166 167 1.100 10000.000 0.000 0.154
49 147.00 1200.01 174 158 1.100 10000.000 0.000 0.154
50 150.00 1200.01 133 145 1.100 10000.000 0.000 0.154
51 153.00 1200.01 150 164 1.100 10000.000 0.000 0.154
52 156.00 1200.01 134 187 1.100 10000.000 0.000 0.154
53 159.00 1200.01 126 172 1.100 10000.000 0.000 0.154
54 162.00 1200.01 149 205 1.100 10000.000 0.000 0.154
55 165.00 1200.01 127 199 1.100 10000.000 0.000 0.154
56 168.00 1200.01 122 242 1.100 10000.000 0.000 0.154
57 171.00 1200.01 150 250 1.100 10000.000 0.000 0.154
58 174.00 1200.01 129 249 1.100 10000.000 0.000 0.154
59 177.00 1200.01 118 237 1.100 10000.000 0.000 0.154
60 180.00 1200.01 111 244 1.100 10000.000 0.000 0.154
61 183.00 1200.01 145 238 1.100 10000.000 0.000 0.154
62 186.00 1200.01 133 268 1.100 10000.000 0.000 0.154
63 189.00 1200.01 134 246 1.100 10000.000 0.000 0.154
64 192.00 1200.01 124 252 1.100 10000.000 0.000 0.154
65 195.00 1200.01 124 234 1.100 10000.000 0.000 0.154
66 198.00 1200.01 146 254 1.100 10000.000 0.000 0.154
67 201.00 1200.01 127 239 1.100 10000.000 0.000 0.154
68 204.00 1200.01 159 241 1.100 10000.000 0.000 0.154
69 207.00 1200.01 149 245 1.100 10000.000 0.000 0.154
70 210.00 1200.01 137 228 1.100 10000.000 0.000 0.154
71 213.00 1200.01 158 212 1.100 10000.000 0.000 0.154
72 216.00 1200.01 171 222 1.100 10000.000 0.000 0.154
73 219.00 1200.01 148 172 1.100 10000.000 0.000 0.154
74 222.00 1200.01 184 155 1.100 10000.000 0.000 0.154
75 225.00 1200.01 161 147 1.100 10000.000 0.000 0.154
76 228.00 1200.01 145 157 1.100 10000.000 0.000 0.154
77 231.00 1200.01 175 156 1.100 10000.000 0.000 0.154
78 234.00 1200.01 173 172 1.100 10000.000 0.000 0.154
79 237.00 1200.01 162 181 1.100 10000.000 0.000 0.154
80 240.00 1200.01 149 161 1.100 10000.000 0.000 0.154
81 243.00 1200.01 153 179 1.100 10000.000 0.000 0.154
82 246.00 1200.01 157 171 1.100 10000.000 0.000 0.154
83 249.00 1200.01 137 177 1.100 10000.000 0.000 0.154
84 252.00 1200.01 170 160 1.100 10000.000 0.000 0.154
85 255.00 1200.01 149 173 1.100 10000.000 0.000 0.154
86 258.00 1200.01 148 171 1.100 10000.000 0.000 0.154
87 261.00 1200.01 127 199 1.100 10000.000 0.000 0.154
88 264.00 1200.01 132 214 1.100 10000.000 0.000 0.154
89 267.00 1200.01 114 227 1.100 10000.000 0.000 0.154
90 270.00 1200.01 151 246 1.100 10000.000 0.000 0.154
91 273.00 1200.01 138 230 1.100 10000.000 0.000 0.154
92 276.00 1200.01 133 274 1.100 10000.000 0.000 0.154
93 279.00 1200.01 135 251 1.100 10000.000 0.000 0.154
94 282.00 1200.01 124 274 1.100 10000.000 0.000 0.154
95 285.00 1200.01 152 244 1.100 10000.000 0.000 0.154
96 288.00 1200.01 146 303 1.100 10000.000 0.000 0.154
97 291.00 1200.01 160 241 1.100 10000.000 0.000 0.154
98 294.00 1200.01 120 282 1.100 10000.000 0.000 0.154
99 297.00 1200.01 168 227 1.100 10000.000 0.000 0.154
100 300.00 1200.01 151 260 1.100 10000.000 0.000 0.154
101 303.00 1200.01 164 226 1.100 10000.000 0.000 0.154
102 306.00 1200.01 158 216 1.100 10000.000 0.000 0.154
103 309.00 1200.01 145 222 1.100 10000.000 0.000 0.154
104 312.00 1200.01 114 226 1.100 10000.000 0.000 0.154
105 315.00 1200.01 125 203 1.100 10000.000 0.000 0.154
106 318.00 1200.01 134 195 1.100 10000.000 0.000 0.154
107 321.00 1200.01 124 166 1.100 10000.000 0.000 0.154
108 324.00 1200.01 136 161 1.100 10000.000 0.000 0.154
109 327.00 1200.01 129 164 1.100 10000.000 0.000 0.154
110 330.00 1200.01 148 177 1.100 10000.000 0.000 0.154
111 333.00 1200.01 150 156 1.100 10000.000 0.000 0.154
112 336.00 1200.01 154 157 1.100 10000.000 0.000 0.154
113 339.00 1200.01 135 170 1.100 10000.000 0.000 0.154
114 342.00 1200.01 169 172 1.100 10000.000 0.000 0.154
115 345.00 1200.01 169 136 1.100 10000.000 0.000 0.154
116 348.00 1200.01 150 194 1.100 10000.000 0.000 0.154
117 351.00 1200.01 196 195 1.100 10000.000 0.000 0.154
118 354.00 1200.01 170 195 1.100 10000.000 0.000 0.154
119 357.00 1200.01 160 189 1.100 10000.000 0.000 0.154
120 360.00 1200.01 186 187 1.100 10000.000 0.000 0.154
121 363.00 1200.01 164 210 1.100 10000.000 0.000 0.154
122 366.00 1200.01 201 180 1.100 10000.000 0.000 0.154
123 369.00 1200.01 179 220 1.100 10000.000 0.000 0.154
124 372.00 1200.01 176 245 1.100 10000.000 0.000 0.154
125 375.00 1200.01 160 250 1.100 10000.000 0.000 0.154
126 378.00 1200.01 144 255 1.100 10000.000 0.000 0.154
127 381.00 1200.01 157 224 1.100 10000.000 0.000 0.154
128 384.00 1200.01 145 255 1.100 10000.000 0.000 0.154
129 387.00 1200.01 151 273 1.100 10000.000 0.000 0.154
130 390.00 1200.01 143 271 1.100 10000.000 0.000 0.154
131 393.00 1200.01 145 269 1.100 10000.000 0.000 0.154
132 396.00 1200.01 125 243 1.100 10000.000 0.000 0.154
133 399.00 1200.01 113 245 1.100 10000.000 0.000 0.154
134 402.00 1200.01 132 238 1.100 10000.000 0.000 0.154
135 405.00 1200.01 143 241 1.100 10000.000 0.000 0.154
136 408.00 1200.01 116 228 1.100 10000.000 0.000 0.154
137 411.00 1200.01 120 229 1.100 10000.000 0.000 0.154
138 414.00 1200.01 135 185 1.100 10000.000 0.000 0.154
139 417.00 1200.01 131 184 1.100 10000.000 0.000 0.154
140 420.00 1200.01 125 182 1.100 10000.000 0.000 0.154
141 423.00 1200.01 127 179 1.100 10000.000 0.000 0.154
142 426.00 1200.01 124 176 1.100 10000.000 0.000 0.154
143 429.00 1200.01 137 171 1.100 10000.000 0.000 0.154
144 432.00 1200.01 148 188 1.100 10000.000 0.000 0.154
