# BinNR microsec tot-time (s)  O-Beam AUX Ampl_1(V) f_1(Hz) phase_1(deg) Ampl_2(V) f_2(Hz) phase_2(deg) chi(pos)
0 0.00 1200.00 139 450 0.760 10000.000 0.000 0.580 15000.000 0.000 -0.835
1 3.00 1200.00 289 925 0.760 10000.000 0.000 0.580 15000.000 0.000 -0.835
2 6.00 1200.00 321 978 0.760 10000.000 0.000 0.580 15000.000 0.000 -0.835
3 9.00 1200.00 282 884 0.760 10000.000 0.000 0.580 15000.000 0.000 -0.835
4 12.00 1200.00 250 924 0.760 10000.000 0.000 0.580 15000.000 0.000 -0.835
5 15.00 1200.00 276 895 0.760 10000.000 0.000 0.580 15000.000 0.000 -0.835
6 18.00 1200.00 259 912 0.760 10000.000 0.000 0.580 15000.000 0.000 -0.835
7 21.00 1200.00 240 927 0.760 10000.000 0.000 0.580 15000.000 0.000 -0.835
8 24.00 1200.00 283 934 0.760 10000.000 0.000 0.580 15000.000 0.000 -0.835
9 27.00 1200.00 273 953 0.760 10000.000 0.000 0.580 15000.000 0.000 -0.835
10 30.00 1200.00 238 905 0.760 10000.000 0.000 0.580 15000.000 0.000 -0.835
11 33.00 1200.00 256 922 0.760 10000.000 0.000 0.580 15000.000 0.000 -0.835
12 36.00 1200.00 240 970 0.760 10000.000 0.000 0.580 15000.000 0.000 -0.835
13 39.00 1200.00 277 892 0.760 10000.000 0.000 0.580 15000.000 0.000 -0.835
14 42.00 1200.00 294 1025 0.760 10000.000 0.000 0.580 15000.000 0.000 -0.835
15 45.00 1200.00 308 962 0.760 10000.000 0.000 0.580 15000.000 0.000 -0.835
16 48.00 1200.00 294 939 0.760 10000.000 0.000 0.580 15000.000 0.000 -0.835
17 51.00 1200.00 269 938 0.760 10000.000 0.000 0.580 15000.000 0.000 -0.835
18 54.00 1200.00 291 949 0.760 10000.000 0.000 0.580 15000.000 0.000 -0.835
19 57.00 1200.00 319 960 0.760 10000.000 0.000 0.580 15000.000 0.000 -0.835
20 60.00 1200.00 283 975 0.760 10000.000 0.000 0.580 15000.000 0.000 -0.835
21 63.00 1200.00 315 958 0.760 10000.000 0.000 0.580 15000.000 0.000 -0.835
22 66.00 1200.00 327 931 0.760 10000.000 0.000 0.580 15000.000 0.000 -0.835
23 69.00 1200.00 287 922 0.760 10000.000 0.000 0.580 15000.000 0.000 -0.835
24 72.00 1200.00 302 979 0.760 10000.000 0.000 0.580 15000.000 0.000 -0.835
25 75.00 1200.00 267 969 0.760 10000.000 0.000 0.580 15000.000 0.000 -0.835
26 78.00 1200.00 311 968 0.760 10000.000 0.000 0.580 15000.000 0.000 -0.835
27 81.00 1200.00 340 957 0.760 10000.000 0.000 0.580 15000.000 0.000 -0.835
28 84.00 1200.00 313 888 0.760 10000.000 0.000 0.580 15000.000 0.000 -0.835
29 87.00 1200.00 296 942 0.760 10000.000 0.000 0.580 15000.000 0.000 -0.835
30 90.00 1200.00 345 921 0.760 10000.000 0.000 0.580 15000.000 0.000 -0.835
31 93.00 1200.00 343 856 0.760 10000.000 0.000 0.580 15000.000 0.000 -0.835
32 96.00 1200.00 310 883 0.760 10000.000 0.000 0.580 15000.000 0.000 -0.835
33 99.00 1200.00 322 838 0.760 10000.000 0.000 0.580 15000.000 0.000 -0.835
34 102.00 1200.00 310 734 0.760 10000.000 0.000 0.580 15000.000 0.000 -0.835
35 105.00 1200.00 321 786 0.760 10000.000 0.000 0.580 15000.000 0.000 -0.835
36 108.00 1200.00 317 742 0.760 10000.000 0.000 0.580 15000.000 0.000 -0.835
37 111.00 1200.00 300 732 0.760 10000.000 0.000 0.580 15000.000 0.000 -0.835
38 114.00 1200.00 343 865 0.760 10000.000 0.000 0.580 15000.000 0.000 -0.835
39 117.00 1200.00 307 808 0.760 10000.000 0.000 0.580 15000.000 0.000 -0.835
40 120.00 1200.00 320 848 0.760 10000.000 0.000 0.580 15000.000 0.000 -0.835
41 123.00 1200.00 326 888 0.760 10000.000 0.000 0.580 15000.000 0.000 -0.835
42 126.00 1200.00 249 922 0.760 10000.000 0.000 0.580 15000.000 0.000 -0.835
43 129.00 1200.00 266 860 0.760 10000.000 0.000 0.580 15000.000 0.000 -0.835
44 132.00 1200.00 262 951 0.760 10000.000 0.000 0.580 15000.000 0.000 -0.835
45 135.00 1200.00 240 971 0.760 10000.000 0.000 0.580 15000.000 0.000 -0.835
46 138.00 1200.00 221 925 0.760 10000.000 0.000 0.580 15000.000 0.000 -0.835
47 141.00 1200.00 234 926 0.760 10000.000 0.000 0.580 15000.000 0.000 -0.835
48 144.00 1200.00 215 952 0.760 10000.000 0.000 0.580 15000.000 0.000 -0.835
49 147.00 1200.00 240 941 0.760 10000.000 0.000 0.580 15000.000 0.000 -0.835
50 150.00 1200.00 219 988 0.760 10000.000 0.000 0.580 15000.000 0.000 -0.835
51 153.00 1200.00 261 995 0.760 10000.000 0.000 0.580 15000.000 0.000 -0.835
52 156.00 1200.00 277 1023 0.760 10000.000 0.000 0.580 15000.000 0.000 -0.835
53 159.00 1200.00 239 961 0.760 10000.000 0.000 0.580 15000.000 0.000 -0.835
54 162.00 1200.00 319 932 0.760 10000.000 0.000 0.580 15000.000 0.000 -0.835
55 165.00 1200.00 266 970 0.760 10000.000 0.000 0.580 15000.000 0.000 -0.835
56 168.00 1200.00 339 926 0.760 10000.000 0.000 0.580 15000.000 0.000 -0.835
57 171.00 1200.00 281 864 0.760 10000.000 0.000 0.580 15000.000 0.000 -0.835
58 174.00 1200.00 315 832 0.760 10000.000 0.000 0.580 15000.000 0.000 -0.835
59 177.00 1200.00 318 786 0.760 10000.000 0.000 0.580 15000.000 0.000 -0.835
60 180.00 1200.00 361 791 0.760 10000.000 0.000 0.580 15000.000 0.000 -0.835
61 183.00 1200.00 370 763 0.760 10000.000 0.000 0.580 15000.000 0.000 -0.835
62 186.00 1200.00 336 893 0.760 10000.000 0.000 0.580 15000.000 0.000 -0.835
63 189.00 1200.00 338 773 0.760 10000.000 0.000 0.580 15000.000 0.000 -0.835
64 192.00 1200.00 333 784 0.760 10000.000 0.000 0.580 15000.000 0.000 -0.835
65 195.00 1200.00 317 860 0.760 10000.000 0.000 0.580 15000.000 0.000 -0.835
66 198.00 1200.00 318 907 0.760 10000.000 0.000 0.580 15000.000 0.000 -0.835
67 201.00 1200.00 278 902 0.760 10000.000 0.000 0.580 15000.000 0.000 -0.835
68 204.00 1200.00 296 995 0.760 10000.000 0.000 0.580 15000.000 0.000 -0.835
69 207.00 1200.00 279 954 0.760 10000.000 0.000 0.580 15000.000 0.000 -0.835
70 210.00 1200.00 268 937 0.760 10000.000 0.000 0.580 15000.000 0.000 -0.835
71 213.00 1200.00 309 922 0.760 10000.000 0.000 0.580 15000.000 0.000 -0.835
72 216.00 1200.00 256 989 0.760 10000.000 0.000 0.580 15000.000 0.000 -0.835
73 219.00 1200.00 250 987 0.760 10000.000 0.000 0.580 15000.000 0.000 -0.835
74 222.00 1200.00 263 940 0.760 10000.000 0.000 0.580 15000.000 0.000 -0.835
75 225.00 1200.00 285 971 0.760 10000.000 0.000 0.580 15000.000 0.000 -0.835
76 228.00 1200.00 258 998 0.760 10000.000 0.000 0.580 15000.000 0.000 -0.835
77 231.00 1200.00 225 895 0.760 10000.000 0.000 0.580 15000.000 0.000 -0.835
78 234.00 1200.00 264 946 0.760 10000.000 0.000 0.580 15000.000 0.000 -0.835
79 237.00 1200.00 293 933 0.760 10000.000 0.000 0.580 15000.000 0.000 -0.835
80 240.00 1200.00 282 954 0.760 10000.000 0.000 0.580 15000.000 0.000 -0.835
81 243.00 1200.00 283 970 0.760 10000.000 0.000 0.580 15000.000 0.000 -0.835
82 246.00 1200.00 290 977 0.760 10000.000 0.000 0.580 15000.000 0.000 -0.835
83 249.00 1200.00 318 932 0.760 10000.000 0.000 0.580 15000.000 0.000 -0.835
84 252.00 1200.00 336 963 0.760 10000.000 0.000 0.580 15000.000 0.000 -0.835
85 255.00 1200.00 325 976 0.760 10000.000 0.000 0.580 15000.000 0.000 -0.835
86 258.00 1200.00 292 950 0.760 10000.000 0.000 0.580 15000.000 0.000 -0.835
87 261.00 1200.00 337 932 0.760 10000.000 0.000 0.580 15000.000 0.000 -0.835
88 264.00 1200.00 321 1010 0.760 10000.000 0.000 0.580 15000.000 0.000 -0.835
89 267.00 1200.00 293 947 0.760 10000.000 0.000 0.580 15000.000 0.000 -0.835
90 270.00 1200.00 306 1039 0.760 10000.000 0.000 0.580 15000.000 0.000 -0.835
91 273.00 1200.00 299 932 0.760 10000.000 0.000 0.580 15000.000 0.000 -0.835
92 276.00 1200.00 339 990 0.760 10000.000 0.000 0.580 15000.000 0.000 -0.835
93 279.00 1200.00 287 990 0.760 10000.000 0.000 0.580 15000.000 0.000 -0.835
94 282.00 1200.00 292 935 0.760 10000.000 0.000 0.580 15000.000 0.000 -0.835
95 285.00 1200.00 273 902 0.760 10000.000 0.000 0.580 15000.000 0.000 -0.835
96 288.00 1200.00 310 912 0.760 10000.000 0.000 0.580 15000.000 0.000 -0.835
97 291.00 1200.00 291 871 0.760 10000.000 0.000 0.580 15000.000 0.000 -0.835
98 294.00 1200.00 302 872 0.760 10000.000 0.000 0.580 15000.000 0.000 -0.835
99 297.00 1200.00 277 772 0.760 10000.000 0.000 0.580 15000.000 0.000 -0.835
100 300.00 1200.00 290 797 0.760 10000.000 0.000 0.580 15000.000 0.000 -0.835
101 303.00 1200.00 296 753 0.760 10000.000 0.000 0.580 15000.000 0.000 -0.835
102 306.00 1200.00 318 732 0.760 10000.000 0.000 0.580 15000.000 0.000 -0.835
103 309.00 1200.00 335 781 0.760 10000.000 0.000 0.580 15000.000 0.000 -0.835
104 312.00 1200.00 307 727 0.760 10000.000 0.000 0.580 15000.000 0.000 -0.835
105 315.00 1200.00 311 769 0.760 10000.000 0.000 0.580 15000.000 0.000 -0.835
106 318.00 1200.00 340 855 0.760 10000.000 0.000 0.580 15000.000 0.000 -0.835
107 321.00 1200.00 318 898 0.760 10000.000 0.000 0.580 15000.000 0.000 -0.835
108 324.00 1200.00 292 912 0.760 10000.000 0.000 0.580 15000.000 0.000 -0.835
109 327.00 1200.00 307 951 0.760 10000.000 0.000 0.580 15000.000 0.000 -0.835
110 330.00 1200.00 325 1025 0.760 10000.000 0.000 0.580 15000.000 0.000 -0.835
111 333.00 1200.00 323 935 0.760 10000.000 0.000 0.580 15000.000 0.000 -0.835
112 336.00 1200.00 326 956 0.760 10000.000 0.000 0.580 15000.000 0.000 -0.835
113 339.00 1200.00 253 953 0.760 10000.000 0.000 0.580 15000.000 0.000 -0.835
114 342.00 1200.00 285 1004 0.760 10000.000 0.000 0.580 15000.000 0.000 -0.835
115 345.00 1200.00 297 952 0.760 10000.000 0.000 0.580 15000.000 0.000 -0.835
116 348.00 1200.00 336 990 0.760 10000.000 0.000 0.580 15000.000 0.000 -0.835
117 351.00 1200.00 316 946 0.760 10000.000 0.000 0.580 15000.000 0.000 -0.835
118 354.00 1200.00 299 980 0.760 10000.000 0.000 0.580 15000.000 0.000 -0.835
119 357.00 1200.00 297 1024 0.760 10000.000 0.000 0.580 15000.000 0.000 -0.835
120 360.00 1200.00 259 1023 0.760 10000.000 0.000 0.580 15000.000 0.000 -0.835
121 363.00 1200.00 285 941 0.760 10000.000 0.000 0.580 15000.000 0.000 -0.835
122 366.00 1200.00 252 935 0.760 10000.000 0.000 0.580 15000.000 0.000 -0.835
123 369.00 1200.00 245 889 0.760 10000.000 0.000 0.580 15000.000 0.000 -0.835
124 372.00 1200.00 250 836 0.760 10000.000 0.000 0.580 15000.000 0.000 -0.835
125 375.00 1200.00 237 818 0.760 10000.000 0.000 0.580 15000.000 0.000 -0.835
126 378.00 1200.00 223 756 0.760 10000.000 0.000 0.580 15000.000 0.000 -0.835
127 381.00 1200.00 234 859 0.760 10000.000 0.000 0.580 15000.000 0.000 -0.835
128 384.00 1200.00 239 814 0.760 10000.000 0.000 0.580 15000.000 0.000 -0.835
129 387.00 1200.00 235 814 0.760 10000.000 0.000 0.580 15000.000 0.000 -0.835
130 390.00 1200.00 267 856 0.760 10000.000 0.000 0.580 15000.000 0.000 -0.835
131 393.00 1200.00 262 871 0.760 10000.000 0.000 0.580 15000.000 0.000 -0.835
132 396.00 1200.00 299 879 0.760 10000.000 0.000 0.580 15000.000 0.000 -0.835
133 399.00 1200.00 323 890 0.760 10000.000 0.000 0.580 15000.000 0.000 -0.835
134 402.00 1200.00 298 916 0.760 10000.000 0.000 0.580 15000.000 0.000 -0.835
135 405.00 1200.00 299 919 0.760 10000.000 0.000 0.580 15000.000 0.000 -0.835
136 408.00 1200.00 319 961 0.760 10000.000 0.000 0.580 15000.000 0.000 -0.835
137 411.00 1200.00 325 921 0.760 10000.000 0.000 0.580 15000.000 0.000 -0.835
138 414.00 1200.00 331 986 0.760 10000.000 0.000 0.580 15000.000 0.000 -0.835
139 417.00 1200.00 330 919 0.760 10000.000 0.000 0.580 15000.000 0.000 -0.835
140 420.00 1200.00 313 953 0.760 10000.000 0.000 0.580 15000.000 0.000 -0.835
141 423.00 1200.00 349 932 0.760 10000.000 0.000 0.580 15000.000 0.000 -0.835
142 426.00 1200.00 318 966 0.760 10000.000 0.000 0.580 15000.000 0.000 -0.835
143 429.00 1200.00 338 925 0.760 10000.000 0.000 0.580 15000.000 0.000 -0.835
144 432.00 1200.00 295 870 0.760 10000.000 0.000 0.580 15000.000 0.000 -0.835
