# BinNR microsec tot-time (s)  O-Beam AUX Ampl_1(V) f_1(Hz) phase_1(deg) Ampl_2(V) f_2(Hz) phase_2(deg) chi(pos)
0 0.00 1200.02 171 463 0.760 10000.000 0.000 0.580 15000.000 0.000 -0.505
1 3.00 1200.02 322 894 0.760 10000.000 0.000 0.580 15000.000 0.000 -0.505
2 6.00 1200.02 346 956 0.760 10000.000 0.000 0.580 15000.000 0.000 -0.505
3 9.00 1200.02 371 940 0.760 10000.000 0.000 0.580 15000.000 0.000 -0.505
4 12.00 1200.02 328 938 0.760 10000.000 0.000 0.580 15000.000 0.000 -0.505
5 15.00 1200.02 326 960 0.760 10000.000 0.000 0.580 15000.000 0.000 -0.505
6 18.00 1200.02 345 942 0.760 10000.000 0.000 0.580 15000.000 0.000 -0.505
7 21.00 1200.02 362 866 0.760 10000.000 0.000 0.580 15000.000 0.000 -0.505
8 24.00 1200.02 354 903 0.760 10000.000 0.000 0.580 15000.000 0.000 -0.505
9 27.00 1200.02 352 907 0.760 10000.000 0.000 0.580 15000.000 0.000 -0.505
10 30.00 1200.02 351 861 0.760 10000.000 0.000 0.580 15000.000 0.000 -0.505
11 33.00 1200.02 314 824 0.760 10000.000 0.000 0.580 15000.000 0.000 -0.505
12 36.00 1200.02 339 829 0.760 10000.000 0.000 0.580 15000.000 0.000 -0.505
13 39.00 1200.02 330 847 0.760 10000.000 0.000 0.580 15000.000 0.000 -0.505
14 42.00 1200.02 325 875 0.760 10000.000 0.000 0.580 15000.000 0.000 -0.505
15 45.00 1200.02 350 867 0.760 10000.000 0.000 0.580 15000.000 0.000 -0.505
16 48.00 1200.02 301 909 0.760 10000.000 0.000 0.580 15000.000 0.000 -0.505
17 51.00 1200.02 317 860 0.760 10000.000 0.000 0.580 15000.000 0.000 -0.505
18 54.00 1200.02 323 901 0.760 10000.000 0.000 0.580 15000.000 0.000 -0.505
19 57.00 1200.02 309 815 0.760 10000.000 0.000 0.580 15000.000 0.000 -0.505
20 60.00 1200.02 339 815 0.760 10000.000 0.000 0.580 15000.000 0.000 -0.505
21 63.00 1200.02 328 839 0.760 10000.000 0.000 0.580 15000.000 0.000 -0.505
22 66.00 1200.02 370 871 0.760 10000.000 0.000 0.580 15000.000 0.000 -0.505
23 69.00 1200.02 341 916 0.760 10000.000 0.000 0.580 15000.000 0.000 -0.505
24 72.00 1200.02 338 942 0.760 10000.000 0.000 0.580 15000.000 0.000 -0.505
25 75.00 1200.02 365 880 0.760 10000.000 0.000 0.580 15000.000 0.000 -0.505
26 78.00 1200.02 355 866 0.760 10000.000 0.000 0.580 15000.000 0.000 -0.505
27 81.00 1200.02 367 870 0.760 10000.000 0.000 0.580 15000.000 0.000 -0.505
28 84.00 1200.02 355 881 0.760 10000.000 0.000 0.580 15000.000 0.000 -0.505
29 87.00 1200.02 331 907 0.760 10000.000 0.000 0.580 15000.000 0.000 -0.505
30 90.00 1200.02 326 988 0.760 10000.000 0.000 0.580 15000.000 0.000 -0.505
31 93.00 1200.02 324 945 0.760 10000.000 0.000 0.580 15000.000 0.000 -0.505
32 96.00 1200.02 355 1003 0.760 10000.000 0.000 0.580 15000.000 0.000 -0.505
33 99.00 1200.02 335 977 0.760 10000.000 0.000 0.580 15000.000 0.000 -0.505
34 102.00 1200.02 291 1002 0.760 10000.000 0.000 0.580 15000.000 0.000 -0.505
35 105.00 1200.02 336 1014 0.760 10000.000 0.000 0.580 15000.000 0.000 -0.505
36 108.00 1200.02 342 1011 0.760 10000.000 0.000 0.580 15000.000 0.000 -0.505
37 111.00 1200.02 293 957 0.760 10000.000 0.000 0.580 15000.000 0.000 -0.505
38 114.00 1200.02 349 1039 0.760 10000.000 0.000 0.580 15000.000 0.000 -0.505
39 117.00 1200.02 321 958 0.760 10000.000 0.000 0.580 15000.000 0.000 -0.505
40 120.00 1200.02 343 955 0.760 10000.000 0.000 0.580 15000.000 0.000 -0.505
41 123.00 1200.02 325 889 0.760 10000.000 0.000 0.580 15000.000 0.000 -0.505
42 126.00 1200.02 338 958 0.760 10000.000 0.000 0.580 15000.000 0.000 -0.505
43 129.00 1200.02 386 843 0.760 10000.000 0.000 0.580 15000.000 0.000 -0.505
44 132.00 1200.02 376 824 0.760 10000.000 0.000 0.580 15000.000 0.000 -0.505
45 135.00 1200.02 344 748 0.760 10000.000 0.000 0.580 15000.000 0.000 -0.505
46 138.00 1200.02 345 692 0.760 10000.000 0.000 0.580 15000.000 0.000 -0.505
47 141.00 1200.02 305 689 0.760 10000.000 0.000 0.580 15000.000 0.000 -0.505
48 144.00 1200.02 346 710 0.760 10000.000 0.000 0.580 15000.000 0.000 -0.505
49 147.00 1200.02 382 698 0.760 10000.000 0.000 0.580 15000.000 0.000 -0.505
50 150.00 1200.02 355 748 0.760 10000.000 0.000 0.580 15000.000 0.000 -0.505
51 153.00 1200.02 345 715 0.760 10000.000 0.000 0.580 15000.000 0.000 -0.505
52 156.00 1200.02 329 780 0.760 10000.000 0.000 0.580 15000.000 0.000 -0.505
53 159.00 1200.02 336 823 0.760 10000.000 0.000 0.580 15000.000 0.000 -0.505
54 162.00 1200.02 336 907 0.760 10000.000 0.000 0.580 15000.000 0.000 -0.505
55 165.00 1200.02 324 899 0.760 10000.000 0.000 0.580 15000.000 0.000 -0.505
56 168.00 1200.02 319 944 0.760 10000.000 0.000 0.580 15000.000 0.000 -0.505
57 171.00 1200.02 303 896 0.760 10000.000 0.000 0.580 15000.000 0.000 -0.505
58 174.00 1200.02 293 957 0.760 10000.000 0.000 0.580 15000.000 0.000 -0.505
59 177.00 1200.02 302 965 0.760 10000.000 0.000 0.580 15000.000 0.000 -0.505
60 180.00 1200.02 275 1063 0.760 10000.000 0.000 0.580 15000.000 0.000 -0.505
61 183.00 1200.02 302 1003 0.760 10000.000 0.000 0.580 15000.000 0.000 -0.505
62 186.00 1200.02 308 1026 0.760 10000.000 0.000 0.580 15000.000 0.000 -0.505
63 189.00 1200.02 320 985 0.760 10000.000 0.000 0.580 15000.000 0.000 -0.505
64 192.00 1200.02 315 1027 0.760 10000.000 0.000 0.580 15000.000 0.000 -0.505
65 195.00 1200.02 325 955 0.760 10000.000 0.000 0.580 15000.000 0.000 -0.505
66 198.00 1200.02 352 935 0.760 10000.000 0.000 0.580 15000.000 0.000 -0.505
67 201.00 1200.02 335 897 0.760 10000.000 0.000 0.580 15000.000 0.000 -0.505
68 204.00 1200.02 366 962 0.760 10000.000 0.000 0.580 15000.000 0.000 -0.505
69 207.00 1200.02 343 940 0.760 10000.000 0.000 0.580 15000.000 0.000 -0.505
70 210.00 1200.02 364 848 0.760 10000.000 0.000 0.580 15000.000 0.000 -0.505
71 213.00 1200.02 305 860 0.760 10000.000 0.000 0.580 15000.000 0.000 -0.505
72 216.00 1200.02 355 876 0.760 10000.000 0.000 0.580 15000.000 0.000 -0.505
73 219.00 1200.02 316 906 0.760 10000.000 0.000 0.580 15000.000 0.000 -0.505
74 222.00 1200.02 353 963 0.760 10000.000 0.000 0.580 15000.000 0.000 -0.505
75 225.00 1200.02 386 873 0.760 10000.000 0.000 0.580 15000.000 0.000 -0.505
76 228.00 1200.02 322 865 0.760 10000.000 0.000 0.580 15000.000 0.000 -0.505
77 231.00 1200.02 313 919 0.760 10000.000 0.000 0.580 15000.000 0.000 -0.505
78 234.00 1200.02 346 900 0.760 10000.000 0.000 0.580 15000.000 0.000 -0.505
79 237.00 1200.02 331 914 0.760 10000.000 0.000 0.580 15000.000 0.000 -0.505
80 240.00 1200.02 325 884 0.760 10000.000 0.000 0.580 15000.000 0.000 -0.505
81 243.00 1200.02 320 928 0.760 10000.000 0.000 0.580 15000.000 0.000 -0.505
82 246.00 1200.02 348 916 0.760 10000.000 0.000 0.580 15000.000 0.000 -0.505
83 249.00 1200.02 351 880 0.760 10000.000 0.000 0.580 15000.000 0.000 -0.505
84 252.00 1200.02 358 926 0.760 10000.000 0.000 0.580 15000.000 0.000 -0.505
85 255.00 1200.02 347 886 0.760 10000.000 0.000 0.580 15000.000 0.000 -0.505
86 258.00 1200.02 356 826 0.760 10000.000 0.000 0.580 15000.000 0.000 -0.505
87 261.00 1200.02 344 821 0.760 10000.000 0.000 0.580 15000.000 0.000 -0.505
88 264.00 1200.02 343 777 0.760 10000.000 0.000 0.580 15000.000 0.000 -0.505
89 267.00 1200.02 329 823 0.760 10000.000 0.000 0.580 15000.000 0.000 -0.505
90 270.00 1200.02 328 807 0.760 10000.000 0.000 0.580 15000.000 0.000 -0.505
91 273.00 1200.02 333 833 0.760 10000.000 0.000 0.580 15000.000 0.000 -0.505
92 276.00 1200.02 333 821 0.760 10000.000 0.000 0.580 15000.000 0.000 -0.505
93 279.00 1200.02 358 837 0.760 10000.000 0.000 0.580 15000.000 0.000 -0.505
94 282.00 1200.02 351 863 0.760 10000.000 0.000 0.580 15000.000 0.000 -0.505
95 285.00 1200.02 332 924 0.760 10000.000 0.000 0.580 15000.000 0.000 -0.505
96 288.00 1200.02 367 956 0.760 10000.000 0.000 0.580 15000.000 0.000 -0.505
97 291.00 1200.02 322 928 0.760 10000.000 0.000 0.580 15000.000 0.000 -0.505
98 294.00 1200.02 362 987 0.760 10000.000 0.000 0.580 15000.000 0.000 -0.505
99 297.00 1200.02 349 930 0.760 10000.000 0.000 0.580 15000.000 0.000 -0.505
100 300.00 1200.02 336 1047 0.760 10000.000 0.000 0.580 15000.000 0.000 -0.505
101 303.00 1200.02 329 1003 0.760 10000.000 0.000 0.580 15000.000 0.000 -0.505
102 306.00 1200.02 327 1016 0.760 10000.000 0.000 0.580 15000.000 0.000 -0.505
103 309.00 1200.02 308 1016 0.760 10000.000 0.000 0.580 15000.000 0.000 -0.505
104 312.00 1200.02 357 1001 0.760 10000.000 0.000 0.580 15000.000 0.000 -0.505
105 315.00 1200.02 334 955 0.760 10000.000 0.000 0.580 15000.000 0.000 -0.505
106 318.00 1200.02 315 968 0.760 10000.000 0.000 0.580 15000.000 0.000 -0.505
107 321.00 1200.02 354 1033 0.760 10000.000 0.000 0.580 15000.000 0.000 -0.505
108 324.00 1200.02 354 926 0.760 10000.000 0.000 0.580 15000.000 0.000 -0.505
109 327.00 1200.02 313 905 0.760 10000.000 0.000 0.580 15000.000 0.000 -0.505
110 330.00 1200.02 313 918 0.760 10000.000 0.000 0.580 15000.000 0.000 -0.505
111 333.00 1200.02 351 808 0.760 10000.000 0.000 0.580 15000.000 0.000 -0.505
112 336.00 1200.02 351 803 0.760 10000.000 0.000 0.580 15000.000 0.000 -0.505
113 339.00 1200.02 364 675 0.760 10000.000 0.000 0.580 15000.000 0.000 -0.505
114 342.00 1200.02 348 698 0.760 10000.000 0.000 0.580 15000.000 0.000 -0.505
115 345.00 1200.02 329 703 0.760 10000.000 0.000 0.580 15000.000 0.000 -0.505
116 348.00 1200.02 343 716 0.760 10000.000 0.000 0.580 15000.000 0.000 -0.505
117 351.00 1200.02 350 764 0.760 10000.000 0.000 0.580 15000.000 0.000 -0.505
118 354.00 1200.02 339 817 0.760 10000.000 0.000 0.580 15000.000 0.000 -0.505
119 357.00 1200.02 311 795 0.760 10000.000 0.000 0.580 15000.000 0.000 -0.505
120 360.00 1200.02 372 860 0.760 10000.000 0.000 0.580 15000.000 0.000 -0.505
121 363.00 1200.02 368 873 0.760 10000.000 0.000 0.580 15000.000 0.000 -0.505
122 366.00 1200.02 331 934 0.760 10000.000 0.000 0.580 15000.000 0.000 -0.505
123 369.00 1200.02 359 932 0.760 10000.000 0.000 0.580 15000.000 0.000 -0.505
124 372.00 1200.02 334 998 0.760 10000.000 0.000 0.580 15000.000 0.000 -0.505
125 375.00 1200.02 359 1069 0.760 10000.000 0.000 0.580 15000.000 0.000 -0.505
126 378.00 1200.02 389 985 0.760 10000.000 0.000 0.580 15000.000 0.000 -0.505
127 381.00 1200.02 369 973 0.760 10000.000 0.000 0.580 15000.000 0.000 -0.505
128 384.00 1200.02 364 998 0.760 10000.000 0.000 0.580 15000.000 0.000 -0.505
129 387.00 1200.02 334 937 0.760 10000.000 0.000 0.580 15000.000 0.000 -0.505
130 390.00 1200.02 341 968 0.760 10000.000 0.000 0.580 15000.000 0.000 -0.505
131 393.00 1200.02 321 990 0.760 10000.000 0.000 0.580 15000.000 0.000 -0.505
132 396.00 1200.02 317 948 0.760 10000.000 0.000 0.580 15000.000 0.000 -0.505
133 399.00 1200.02 333 899 0.760 10000.000 0.000 0.580 15000.000 0.000 -0.505
134 402.00 1200.02 353 884 0.760 10000.000 0.000 0.580 15000.000 0.000 -0.505
135 405.00 1200.02 321 902 0.760 10000.000 0.000 0.580 15000.000 0.000 -0.505
136 408.00 1200.02 300 961 0.760 10000.000 0.000 0.580 15000.000 0.000 -0.505
137 411.00 1200.02 302 875 0.760 10000.000 0.000 0.580 15000.000 0.000 -0.505
138 414.00 1200.02 287 899 0.760 10000.000 0.000 0.580 15000.000 0.000 -0.505
139 417.00 1200.02 309 859 0.760 10000.000 0.000 0.580 15000.000 0.000 -0.505
140 420.00 1200.02 305 952 0.760 10000.000 0.000 0.580 15000.000 0.000 -0.505
141 423.00 1200.02 303 883 0.760 10000.000 0.000 0.580 15000.000 0.000 -0.505
142 426.00 1200.02 329 903 0.760 10000.000 0.000 0.580 15000.000 0.000 -0.505
143 429.00 1200.02 302 895 0.760 10000.000 0.000 0.580 15000.000 0.000 -0.505
144 432.00 1200.02 332 972 0.760 10000.000 0.000 0.580 15000.000 0.000 -0.505
