# BinNR microsec tot-time (s)  O-Beam AUX Ampl(V) f(Hz) phase(deg) chi(pos)
0 0.00 1500.01 90 90 1.520 10000.000 0.000 -1.340
1 3.00 1500.01 171 194 1.520 10000.000 0.000 -1.340
2 6.00 1500.01 179 203 1.520 10000.000 0.000 -1.340
3 9.00 1500.01 184 210 1.520 10000.000 0.000 -1.340
4 12.00 1500.01 223 181 1.520 10000.000 0.000 -1.340
5 15.00 1500.01 217 214 1.520 10000.000 0.000 -1.340
6 18.00 1500.01 216 219 1.520 10000.000 0.000 -1.340
7 21.00 1500.01 229 237 1.520 10000.000 0.000 -1.340
8 24.00 1500.01 269 259 1.520 10000.000 0.000 -1.340
9 27.00 1500.01 253 255 1.520 10000.000 0.000 -1.340
10 30.00 1500.01 295 272 1.520 10000.000 0.000 -1.340
11 33.00 1500.01 258 255 1.520 10000.000 0.000 -1.340
12 36.00 1500.01 265 267 1.520 10000.000 0.000 -1.340
13 39.00 1500.01 275 258 1.520 10000.000 0.000 -1.340
14 42.00 1500.01 256 218 1.520 10000.000 0.000 -1.340
15 45.00 1500.01 270 215 1.520 10000.000 0.000 -1.340
16 48.00 1500.01 262 216 1.520 10000.000 0.000 -1.340
17 51.00 1500.01 269 209 1.520 10000.000 0.000 -1.340
18 54.00 1500.01 232 210 1.520 10000.000 0.000 -1.340
19 57.00 1500.01 211 202 1.520 10000.000 0.000 -1.340
20 60.00 1500.01 210 193 1.520 10000.000 0.000 -1.340
21 63.00 1500.01 210 215 1.520 10000.000 0.000 -1.340
22 66.00 1500.01 216 218 1.520 10000.000 0.000 -1.340
23 69.00 1500.01 191 220 1.520 10000.000 0.000 -1.340
24 72.00 1500.01 200 231 1.520 10000.000 0.000 -1.340
25 75.00 1500.01 177 262 1.520 10000.000 0.000 -1.340
26 78.00 1500.01 169 306 1.520 10000.000 0.000 -1.340
27 81.00 1500.01 153 366 1.520 10000.000 0.000 -1.340
28 84.00 1500.01 159 409 1.520 10000.000 0.000 -1.340
29 87.00 1500.01 187 422 1.520 10000.000 0.000 -1.340
30 90.00 1500.01 180 457 1.520 10000.000 0.000 -1.340
31 93.00 1500.01 151 496 1.520 10000.000 0.000 -1.340
32 96.00 1500.01 155 530 1.520 10000.000 0.000 -1.340
33 99.00 1500.01 173 476 1.520 10000.000 0.000 -1.340
34 102.00 1500.01 172 523 1.520 10000.000 0.000 -1.340
35 105.00 1500.01 203 507 1.520 10000.000 0.000 -1.340
36 108.00 1500.01 209 479 1.520 10000.000 0.000 -1.340
37 111.00 1500.01 187 429 1.520 10000.000 0.000 -1.340
38 114.00 1500.01 181 413 1.520 10000.000 0.000 -1.340
39 117.00 1500.01 197 372 1.520 10000.000 0.000 -1.340
40 120.00 1500.01 226 311 1.520 10000.000 0.000 -1.340
41 123.00 1500.01 233 256 1.520 10000.000 0.000 -1.340
42 126.00 1500.01 261 233 1.520 10000.000 0.000 -1.340
43 129.00 1500.01 241 214 1.520 10000.000 0.000 -1.340
44 132.00 1500.01 248 213 1.520 10000.000 0.000 -1.340
45 135.00 1500.01 268 207 1.520 10000.000 0.000 -1.340
46 138.00 1500.01 258 201 1.520 10000.000 0.000 -1.340
47 141.00 1500.01 263 210 1.520 10000.000 0.000 -1.340
48 144.00 1500.01 276 204 1.520 10000.000 0.000 -1.340
49 147.00 1500.01 264 180 1.520 10000.000 0.000 -1.340
50 150.00 1500.01 246 231 1.520 10000.000 0.000 -1.340
51 153.00 1500.01 241 204 1.520 10000.000 0.000 -1.340
52 156.00 1500.01 233 188 1.520 10000.000 0.000 -1.340
53 159.00 1500.01 211 191 1.520 10000.000 0.000 -1.340
54 162.00 1500.01 185 205 1.520 10000.000 0.000 -1.340
55 165.00 1500.01 183 225 1.520 10000.000 0.000 -1.340
56 168.00 1500.01 209 232 1.520 10000.000 0.000 -1.340
57 171.00 1500.01 172 222 1.520 10000.000 0.000 -1.340
58 174.00 1500.01 192 275 1.520 10000.000 0.000 -1.340
59 177.00 1500.01 163 312 1.520 10000.000 0.000 -1.340
60 180.00 1500.01 166 334 1.520 10000.000 0.000 -1.340
61 183.00 1500.01 166 383 1.520 10000.000 0.000 -1.340
62 186.00 1500.01 154 428 1.520 10000.000 0.000 -1.340
63 189.00 1500.01 159 473 1.520 10000.000 0.000 -1.340
64 192.00 1500.01 183 525 1.520 10000.000 0.000 -1.340
65 195.00 1500.01 156 509 1.520 10000.000 0.000 -1.340
66 198.00 1500.01 186 562 1.520 10000.000 0.000 -1.340
67 201.00 1500.01 171 518 1.520 10000.000 0.000 -1.340
68 204.00 1500.01 171 506 1.520 10000.000 0.000 -1.340
69 207.00 1500.01 201 471 1.520 10000.000 0.000 -1.340
70 210.00 1500.01 205 444 1.520 10000.000 0.000 -1.340
71 213.00 1500.01 195 395 1.520 10000.000 0.000 -1.340
72 216.00 1500.01 202 379 1.520 10000.000 0.000 -1.340
73 219.00 1500.01 229 294 1.520 10000.000 0.000 -1.340
74 222.00 1500.01 249 275 1.520 10000.000 0.000 -1.340
75 225.00 1500.01 249 248 1.520 10000.000 0.000 -1.340
76 228.00 1500.01 262 231 1.520 10000.000 0.000 -1.340
77 231.00 1500.01 251 218 1.520 10000.000 0.000 -1.340
78 234.00 1500.01 279 224 1.520 10000.000 0.000 -1.340
79 237.00 1500.01 253 210 1.520 10000.000 0.000 -1.340
80 240.00 1500.01 239 222 1.520 10000.000 0.000 -1.340
81 243.00 1500.01 289 214 1.520 10000.000 0.000 -1.340
82 246.00 1500.01 257 218 1.520 10000.000 0.000 -1.340
83 249.00 1500.01 274 201 1.520 10000.000 0.000 -1.340
84 252.00 1500.01 248 225 1.520 10000.000 0.000 -1.340
85 255.00 1500.01 233 181 1.520 10000.000 0.000 -1.340
86 258.00 1500.01 239 204 1.520 10000.000 0.000 -1.340
87 261.00 1500.01 214 212 1.520 10000.000 0.000 -1.340
88 264.00 1500.01 205 212 1.520 10000.000 0.000 -1.340
89 267.00 1500.01 174 212 1.520 10000.000 0.000 -1.340
90 270.00 1500.01 193 246 1.520 10000.000 0.000 -1.340
91 273.00 1500.01 186 254 1.520 10000.000 0.000 -1.340
92 276.00 1500.01 183 320 1.520 10000.000 0.000 -1.340
93 279.00 1500.01 161 311 1.520 10000.000 0.000 -1.340
94 282.00 1500.01 159 373 1.520 10000.000 0.000 -1.340
95 285.00 1500.01 184 448 1.520 10000.000 0.000 -1.340
96 288.00 1500.01 189 504 1.520 10000.000 0.000 -1.340
97 291.00 1500.01 176 494 1.520 10000.000 0.000 -1.340
98 294.00 1500.01 198 515 1.520 10000.000 0.000 -1.340
99 297.00 1500.01 185 516 1.520 10000.000 0.000 -1.340
100 300.00 1500.01 185 509 1.520 10000.000 0.000 -1.340
101 303.00 1500.01 190 505 1.520 10000.000 0.000 -1.340
102 306.00 1500.01 212 496 1.520 10000.000 0.000 -1.340
103 309.00 1500.01 193 470 1.520 10000.000 0.000 -1.340
104 312.00 1500.01 212 443 1.520 10000.000 0.000 -1.340
105 315.00 1500.01 177 394 1.520 10000.000 0.000 -1.340
106 318.00 1500.01 180 307 1.520 10000.000 0.000 -1.340
107 321.00 1500.01 170 298 1.520 10000.000 0.000 -1.340
108 324.00 1500.01 183 272 1.520 10000.000 0.000 -1.340
109 327.00 1500.01 188 212 1.520 10000.000 0.000 -1.340
110 330.00 1500.01 173 222 1.520 10000.000 0.000 -1.340
111 333.00 1500.01 182 220 1.520 10000.000 0.000 -1.340
112 336.00 1500.01 160 206 1.520 10000.000 0.000 -1.340
113 339.00 1500.01 180 201 1.520 10000.000 0.000 -1.340
114 342.00 1500.01 203 220 1.520 10000.000 0.000 -1.340
115 345.00 1500.01 174 204 1.520 10000.000 0.000 -1.340
116 348.00 1500.01 217 197 1.520 10000.000 0.000 -1.340
117 351.00 1500.01 192 211 1.520 10000.000 0.000 -1.340
118 354.00 1500.01 252 198 1.520 10000.000 0.000 -1.340
119 357.00 1500.01 242 194 1.520 10000.000 0.000 -1.340
120 360.00 1500.01 263 202 1.520 10000.000 0.000 -1.340
121 363.00 1500.01 271 233 1.520 10000.000 0.000 -1.340
122 366.00 1500.01 266 238 1.520 10000.000 0.000 -1.340
123 369.00 1500.01 251 246 1.520 10000.000 0.000 -1.340
124 372.00 1500.01 278 268 1.520 10000.000 0.000 -1.340
125 375.00 1500.01 267 271 1.520 10000.000 0.000 -1.340
126 378.00 1500.01 267 331 1.520 10000.000 0.000 -1.340
127 381.00 1500.01 230 351 1.520 10000.000 0.000 -1.340
128 384.00 1500.01 275 404 1.520 10000.000 0.000 -1.340
129 387.00 1500.01 242 452 1.520 10000.000 0.000 -1.340
130 390.00 1500.01 236 517 1.520 10000.000 0.000 -1.340
131 393.00 1500.01 207 483 1.520 10000.000 0.000 -1.340
132 396.00 1500.01 229 501 1.520 10000.000 0.000 -1.340
133 399.00 1500.01 190 510 1.520 10000.000 0.000 -1.340
134 402.00 1500.01 190 558 1.520 10000.000 0.000 -1.340
135 405.00 1500.01 207 486 1.520 10000.000 0.000 -1.340
136 408.00 1500.01 161 477 1.520 10000.000 0.000 -1.340
137 411.00 1500.01 200 409 1.520 10000.000 0.000 -1.340
138 414.00 1500.01 193 393 1.520 10000.000 0.000 -1.340
139 417.00 1500.01 144 344 1.520 10000.000 0.000 -1.340
140 420.00 1500.01 156 315 1.520 10000.000 0.000 -1.340
141 423.00 1500.01 150 261 1.520 10000.000 0.000 -1.340
142 426.00 1500.01 162 257 1.520 10000.000 0.000 -1.340
143 429.00 1500.01 179 197 1.520 10000.000 0.000 -1.340
144 432.00 1500.01 163 208 1.520 10000.000 0.000 -1.340
