# BinNR microsec tot-time (s)  O-Beam AUX Ampl(V) f(Hz) phase(deg) chi(pos)
0 0.00 1500.01 200 622 1.520 10000.000 0.000 -0.165
1 3.00 1500.01 424 1110 1.520 10000.000 0.000 -0.165
2 6.00 1500.01 399 1128 1.520 10000.000 0.000 -0.165
3 9.00 1500.01 385 1109 1.520 10000.000 0.000 -0.165
4 12.00 1500.01 432 1202 1.520 10000.000 0.000 -0.165
5 15.00 1500.01 406 1134 1.520 10000.000 0.000 -0.165
6 18.00 1500.01 407 1216 1.520 10000.000 0.000 -0.165
7 21.00 1500.01 380 1213 1.520 10000.000 0.000 -0.165
8 24.00 1500.01 426 1218 1.520 10000.000 0.000 -0.165
9 27.00 1500.01 376 1215 1.520 10000.000 0.000 -0.165
10 30.00 1500.01 384 1247 1.520 10000.000 0.000 -0.165
11 33.00 1500.01 350 1234 1.520 10000.000 0.000 -0.165
12 36.00 1500.01 355 1224 1.520 10000.000 0.000 -0.165
13 39.00 1500.01 343 1305 1.520 10000.000 0.000 -0.165
14 42.00 1500.01 397 1238 1.520 10000.000 0.000 -0.165
15 45.00 1500.01 397 1205 1.520 10000.000 0.000 -0.165
16 48.00 1500.01 385 1211 1.520 10000.000 0.000 -0.165
17 51.00 1500.01 366 1163 1.520 10000.000 0.000 -0.165
18 54.00 1500.01 402 1128 1.520 10000.000 0.000 -0.165
19 57.00 1500.01 384 1156 1.520 10000.000 0.000 -0.165
20 60.00 1500.01 384 1185 1.520 10000.000 0.000 -0.165
21 63.00 1500.01 397 1219 1.520 10000.000 0.000 -0.165
22 66.00 1500.01 454 1186 1.520 10000.000 0.000 -0.165
23 69.00 1500.01 373 1185 1.520 10000.000 0.000 -0.165
24 72.00 1500.01 438 1214 1.520 10000.000 0.000 -0.165
25 75.00 1500.01 409 1215 1.520 10000.000 0.000 -0.165
26 78.00 1500.01 382 1232 1.520 10000.000 0.000 -0.165
27 81.00 1500.01 418 1241 1.520 10000.000 0.000 -0.165
28 84.00 1500.01 385 1240 1.520 10000.000 0.000 -0.165
29 87.00 1500.01 367 1242 1.520 10000.000 0.000 -0.165
30 90.00 1500.01 402 1233 1.520 10000.000 0.000 -0.165
31 93.00 1500.01 366 1166 1.520 10000.000 0.000 -0.165
32 96.00 1500.01 443 1242 1.520 10000.000 0.000 -0.165
33 99.00 1500.01 425 1153 1.520 10000.000 0.000 -0.165
34 102.00 1500.01 414 1169 1.520 10000.000 0.000 -0.165
35 105.00 1500.01 404 1215 1.520 10000.000 0.000 -0.165
36 108.00 1500.01 434 1163 1.520 10000.000 0.000 -0.165
37 111.00 1500.01 374 1208 1.520 10000.000 0.000 -0.165
38 114.00 1500.01 386 1268 1.520 10000.000 0.000 -0.165
39 117.00 1500.01 387 1256 1.520 10000.000 0.000 -0.165
40 120.00 1500.01 415 1313 1.520 10000.000 0.000 -0.165
41 123.00 1500.01 377 1209 1.520 10000.000 0.000 -0.165
42 126.00 1500.01 415 1266 1.520 10000.000 0.000 -0.165
43 129.00 1500.01 342 1176 1.520 10000.000 0.000 -0.165
44 132.00 1500.01 416 1166 1.520 10000.000 0.000 -0.165
45 135.00 1500.01 382 1153 1.520 10000.000 0.000 -0.165
46 138.00 1500.01 376 1106 1.520 10000.000 0.000 -0.165
47 141.00 1500.01 353 1214 1.520 10000.000 0.000 -0.165
48 144.00 1500.01 369 1105 1.520 10000.000 0.000 -0.165
49 147.00 1500.01 384 1051 1.520 10000.000 0.000 -0.165
50 150.00 1500.01 386 1060 1.520 10000.000 0.000 -0.165
51 153.00 1500.01 363 1151 1.520 10000.000 0.000 -0.165
52 156.00 1500.01 367 1107 1.520 10000.000 0.000 -0.165
53 159.00 1500.01 344 1149 1.520 10000.000 0.000 -0.165
54 162.00 1500.01 414 1257 1.520 10000.000 0.000 -0.165
55 165.00 1500.01 404 1112 1.520 10000.000 0.000 -0.165
56 168.00 1500.01 410 1188 1.520 10000.000 0.000 -0.165
57 171.00 1500.01 405 1207 1.520 10000.000 0.000 -0.165
58 174.00 1500.01 397 1246 1.520 10000.000 0.000 -0.165
59 177.00 1500.01 394 1266 1.520 10000.000 0.000 -0.165
60 180.00 1500.01 410 1214 1.520 10000.000 0.000 -0.165
61 183.00 1500.01 384 1194 1.520 10000.000 0.000 -0.165
62 186.00 1500.01 413 1241 1.520 10000.000 0.000 -0.165
63 189.00 1500.01 377 1218 1.520 10000.000 0.000 -0.165
64 192.00 1500.01 413 1240 1.520 10000.000 0.000 -0.165
65 195.00 1500.01 401 1156 1.520 10000.000 0.000 -0.165
66 198.00 1500.01 405 1210 1.520 10000.000 0.000 -0.165
67 201.00 1500.01 463 1196 1.520 10000.000 0.000 -0.165
68 204.00 1500.01 407 1155 1.520 10000.000 0.000 -0.165
69 207.00 1500.01 410 1114 1.520 10000.000 0.000 -0.165
70 210.00 1500.01 425 1139 1.520 10000.000 0.000 -0.165
71 213.00 1500.01 411 1216 1.520 10000.000 0.000 -0.165
72 216.00 1500.01 411 1376 1.520 10000.000 0.000 -0.165
73 219.00 1500.01 362 1242 1.520 10000.000 0.000 -0.165
74 222.00 1500.01 422 1246 1.520 10000.000 0.000 -0.165
75 225.00 1500.01 360 1244 1.520 10000.000 0.000 -0.165
76 228.00 1500.01 377 1263 1.520 10000.000 0.000 -0.165
77 231.00 1500.01 374 1222 1.520 10000.000 0.000 -0.165
78 234.00 1500.01 356 1132 1.520 10000.000 0.000 -0.165
79 237.00 1500.01 362 1144 1.520 10000.000 0.000 -0.165
80 240.00 1500.01 389 1122 1.520 10000.000 0.000 -0.165
81 243.00 1500.01 369 1029 1.520 10000.000 0.000 -0.165
82 246.00 1500.01 320 1158 1.520 10000.000 0.000 -0.165
83 249.00 1500.01 368 1110 1.520 10000.000 0.000 -0.165
84 252.00 1500.01 353 1061 1.520 10000.000 0.000 -0.165
85 255.00 1500.01 387 1183 1.520 10000.000 0.000 -0.165
86 258.00 1500.01 406 1115 1.520 10000.000 0.000 -0.165
87 261.00 1500.01 356 1130 1.520 10000.000 0.000 -0.165
88 264.00 1500.01 384 1179 1.520 10000.000 0.000 -0.165
89 267.00 1500.01 420 1291 1.520 10000.000 0.000 -0.165
90 270.00 1500.01 453 1210 1.520 10000.000 0.000 -0.165
91 273.00 1500.01 391 1238 1.520 10000.000 0.000 -0.165
92 276.00 1500.01 418 1239 1.520 10000.000 0.000 -0.165
93 279.00 1500.01 431 1199 1.520 10000.000 0.000 -0.165
94 282.00 1500.01 407 1220 1.520 10000.000 0.000 -0.165
95 285.00 1500.01 433 1267 1.520 10000.000 0.000 -0.165
96 288.00 1500.01 405 1171 1.520 10000.000 0.000 -0.165
97 291.00 1500.01 396 1182 1.520 10000.000 0.000 -0.165
98 294.00 1500.01 401 1236 1.520 10000.000 0.000 -0.165
99 297.00 1500.01 385 1133 1.520 10000.000 0.000 -0.165
100 300.00 1500.01 411 1232 1.520 10000.000 0.000 -0.165
101 303.00 1500.01 412 1174 1.520 10000.000 0.000 -0.165
102 306.00 1500.01 408 1185 1.520 10000.000 0.000 -0.165
103 309.00 1500.01 427 1171 1.520 10000.000 0.000 -0.165
104 312.00 1500.01 397 1227 1.520 10000.000 0.000 -0.165
105 315.00 1500.01 405 1308 1.520 10000.000 0.000 -0.165
106 318.00 1500.01 410 1226 1.520 10000.000 0.000 -0.165
107 321.00 1500.01 400 1215 1.520 10000.000 0.000 -0.165
108 324.00 1500.01 402 1254 1.520 10000.000 0.000 -0.165
109 327.00 1500.01 402 1206 1.520 10000.000 0.000 -0.165
110 330.00 1500.01 380 1255 1.520 10000.000 0.000 -0.165
111 333.00 1500.01 419 1198 1.520 10000.000 0.000 -0.165
112 336.00 1500.01 398 1194 1.520 10000.000 0.000 -0.165
113 339.00 1500.01 397 1058 1.520 10000.000 0.000 -0.165
114 342.00 1500.01 406 1072 1.520 10000.000 0.000 -0.165
115 345.00 1500.01 410 1025 1.520 10000.000 0.000 -0.165
116 348.00 1500.01 414 1109 1.520 10000.000 0.000 -0.165
117 351.00 1500.01 388 1044 1.520 10000.000 0.000 -0.165
118 354.00 1500.01 417 1134 1.520 10000.000 0.000 -0.165
119 357.00 1500.01 422 1154 1.520 10000.000 0.000 -0.165
120 360.00 1500.01 388 1103 1.520 10000.000 0.000 -0.165
121 363.00 1500.01 368 1185 1.520 10000.000 0.000 -0.165
122 366.00 1500.01 366 1231 1.520 10000.000 0.000 -0.165
123 369.00 1500.01 327 1186 1.520 10000.000 0.000 -0.165
124 372.00 1500.01 365 1263 1.520 10000.000 0.000 -0.165
125 375.00 1500.01 339 1221 1.520 10000.000 0.000 -0.165
126 378.00 1500.01 419 1171 1.520 10000.000 0.000 -0.165
127 381.00 1500.01 401 1316 1.520 10000.000 0.000 -0.165
128 384.00 1500.01 339 1240 1.520 10000.000 0.000 -0.165
129 387.00 1500.01 351 1195 1.520 10000.000 0.000 -0.165
130 390.00 1500.01 387 1181 1.520 10000.000 0.000 -0.165
131 393.00 1500.01 360 1149 1.520 10000.000 0.000 -0.165
132 396.00 1500.01 388 1118 1.520 10000.000 0.000 -0.165
133 399.00 1500.01 412 1142 1.520 10000.000 0.000 -0.165
134 402.00 1500.01 380 1178 1.520 10000.000 0.000 -0.165
135 405.00 1500.01 395 1126 1.520 10000.000 0.000 -0.165
136 408.00 1500.01 438 1256 1.520 10000.000 0.000 -0.165
137 411.00 1500.01 402 1119 1.520 10000.000 0.000 -0.165
138 414.00 1500.01 424 1185 1.520 10000.000 0.000 -0.165
139 417.00 1500.01 390 1285 1.520 10000.000 0.000 -0.165
140 420.00 1500.01 426 1318 1.520 10000.000 0.000 -0.165
141 423.00 1500.01 400 1311 1.520 10000.000 0.000 -0.165
142 426.00 1500.01 398 1309 1.520 10000.000 0.000 -0.165
143 429.00 1500.01 387 1212 1.520 10000.000 0.000 -0.165
144 432.00 1500.01 415 1165 1.520 10000.000 0.000 -0.165
