# BinNR microsec tot-time (s)  O-Beam AUX Ampl(V) f(Hz) phase(deg) chi(pos)
0 0.00 1500.01 91 307 1.520 10000.000 0.000 1.165
1 3.00 1500.01 209 633 1.520 10000.000 0.000 1.165
2 6.00 1500.01 204 644 1.520 10000.000 0.000 1.165
3 9.00 1500.01 153 599 1.520 10000.000 0.000 1.165
4 12.00 1500.01 180 648 1.520 10000.000 0.000 1.165
5 15.00 1500.01 156 554 1.520 10000.000 0.000 1.165
6 18.00 1500.01 185 561 1.520 10000.000 0.000 1.165
7 21.00 1500.01 167 540 1.520 10000.000 0.000 1.165
8 24.00 1500.01 145 442 1.520 10000.000 0.000 1.165
9 27.00 1500.01 148 426 1.520 10000.000 0.000 1.165
10 30.00 1500.01 162 420 1.520 10000.000 0.000 1.165
11 33.00 1500.01 171 434 1.520 10000.000 0.000 1.165
12 36.00 1500.01 159 485 1.520 10000.000 0.000 1.165
13 39.00 1500.01 157 383 1.520 10000.000 0.000 1.165
14 42.00 1500.01 178 481 1.520 10000.000 0.000 1.165
15 45.00 1500.01 147 477 1.520 10000.000 0.000 1.165
16 48.00 1500.01 156 552 1.520 10000.000 0.000 1.165
17 51.00 1500.01 166 589 1.520 10000.000 0.000 1.165
18 54.00 1500.01 178 650 1.520 10000.000 0.000 1.165
19 57.00 1500.01 201 603 1.520 10000.000 0.000 1.165
20 60.00 1500.01 174 650 1.520 10000.000 0.000 1.165
21 63.00 1500.01 199 610 1.520 10000.000 0.000 1.165
22 66.00 1500.01 200 552 1.520 10000.000 0.000 1.165
23 69.00 1500.01 209 480 1.520 10000.000 0.000 1.165
24 72.00 1500.01 235 433 1.520 10000.000 0.000 1.165
25 75.00 1500.01 218 402 1.520 10000.000 0.000 1.165
26 78.00 1500.01 237 383 1.520 10000.000 0.000 1.165
27 81.00 1500.01 222 298 1.520 10000.000 0.000 1.165
28 84.00 1500.01 230 279 1.520 10000.000 0.000 1.165
29 87.00 1500.01 241 292 1.520 10000.000 0.000 1.165
30 90.00 1500.01 227 232 1.520 10000.000 0.000 1.165
31 93.00 1500.01 206 225 1.520 10000.000 0.000 1.165
32 96.00 1500.01 221 244 1.520 10000.000 0.000 1.165
33 99.00 1500.01 219 209 1.520 10000.000 0.000 1.165
34 102.00 1500.01 197 220 1.520 10000.000 0.000 1.165
35 105.00 1500.01 198 210 1.520 10000.000 0.000 1.165
36 108.00 1500.01 175 267 1.520 10000.000 0.000 1.165
37 111.00 1500.01 184 237 1.520 10000.000 0.000 1.165
38 114.00 1500.01 194 263 1.520 10000.000 0.000 1.165
39 117.00 1500.01 163 313 1.520 10000.000 0.000 1.165
40 120.00 1500.01 157 377 1.520 10000.000 0.000 1.165
41 123.00 1500.01 139 389 1.520 10000.000 0.000 1.165
42 126.00 1500.01 136 474 1.520 10000.000 0.000 1.165
43 129.00 1500.01 141 507 1.520 10000.000 0.000 1.165
44 132.00 1500.01 147 570 1.520 10000.000 0.000 1.165
45 135.00 1500.01 163 643 1.520 10000.000 0.000 1.165
46 138.00 1500.01 159 632 1.520 10000.000 0.000 1.165
47 141.00 1500.01 141 745 1.520 10000.000 0.000 1.165
48 144.00 1500.01 169 698 1.520 10000.000 0.000 1.165
49 147.00 1500.01 135 692 1.520 10000.000 0.000 1.165
50 150.00 1500.01 166 773 1.520 10000.000 0.000 1.165
51 153.00 1500.01 173 679 1.520 10000.000 0.000 1.165
52 156.00 1500.01 177 674 1.520 10000.000 0.000 1.165
53 159.00 1500.01 183 698 1.520 10000.000 0.000 1.165
54 162.00 1500.01 190 612 1.520 10000.000 0.000 1.165
55 165.00 1500.01 166 584 1.520 10000.000 0.000 1.165
56 168.00 1500.01 216 568 1.520 10000.000 0.000 1.165
57 171.00 1500.01 193 461 1.520 10000.000 0.000 1.165
58 174.00 1500.01 217 387 1.520 10000.000 0.000 1.165
59 177.00 1500.01 235 371 1.520 10000.000 0.000 1.165
60 180.00 1500.01 217 338 1.520 10000.000 0.000 1.165
61 183.00 1500.01 225 273 1.520 10000.000 0.000 1.165
62 186.00 1500.01 217 255 1.520 10000.000 0.000 1.165
63 189.00 1500.01 225 257 1.520 10000.000 0.000 1.165
64 192.00 1500.01 214 235 1.520 10000.000 0.000 1.165
65 195.00 1500.01 226 228 1.520 10000.000 0.000 1.165
66 198.00 1500.01 208 232 1.520 10000.000 0.000 1.165
67 201.00 1500.01 211 226 1.520 10000.000 0.000 1.165
68 204.00 1500.01 203 226 1.520 10000.000 0.000 1.165
69 207.00 1500.01 177 247 1.520 10000.000 0.000 1.165
70 210.00 1500.01 180 236 1.520 10000.000 0.000 1.165
71 213.00 1500.01 178 281 1.520 10000.000 0.000 1.165
72 216.00 1500.01 173 364 1.520 10000.000 0.000 1.165
73 219.00 1500.01 156 313 1.520 10000.000 0.000 1.165
74 222.00 1500.01 160 391 1.520 10000.000 0.000 1.165
75 225.00 1500.01 161 420 1.520 10000.000 0.000 1.165
76 228.00 1500.01 165 541 1.520 10000.000 0.000 1.165
77 231.00 1500.01 147 562 1.520 10000.000 0.000 1.165
78 234.00 1500.01 142 629 1.520 10000.000 0.000 1.165
79 237.00 1500.01 158 656 1.520 10000.000 0.000 1.165
80 240.00 1500.01 145 672 1.520 10000.000 0.000 1.165
81 243.00 1500.01 176 760 1.520 10000.000 0.000 1.165
82 246.00 1500.01 179 742 1.520 10000.000 0.000 1.165
83 249.00 1500.01 155 693 1.520 10000.000 0.000 1.165
84 252.00 1500.01 176 755 1.520 10000.000 0.000 1.165
85 255.00 1500.01 184 657 1.520 10000.000 0.000 1.165
86 258.00 1500.01 196 693 1.520 10000.000 0.000 1.165
87 261.00 1500.01 193 648 1.520 10000.000 0.000 1.165
88 264.00 1500.01 197 529 1.520 10000.000 0.000 1.165
89 267.00 1500.01 201 503 1.520 10000.000 0.000 1.165
90 270.00 1500.01 232 525 1.520 10000.000 0.000 1.165
91 273.00 1500.01 189 457 1.520 10000.000 0.000 1.165
92 276.00 1500.01 218 409 1.520 10000.000 0.000 1.165
93 279.00 1500.01 219 335 1.520 10000.000 0.000 1.165
94 282.00 1500.01 196 291 1.520 10000.000 0.000 1.165
95 285.00 1500.01 172 270 1.520 10000.000 0.000 1.165
96 288.00 1500.01 178 245 1.520 10000.000 0.000 1.165
97 291.00 1500.01 193 256 1.520 10000.000 0.000 1.165
98 294.00 1500.01 175 230 1.520 10000.000 0.000 1.165
99 297.00 1500.01 198 227 1.520 10000.000 0.000 1.165
100 300.00 1500.01 189 225 1.520 10000.000 0.000 1.165
101 303.00 1500.01 164 238 1.520 10000.000 0.000 1.165
102 306.00 1500.01 189 274 1.520 10000.000 0.000 1.165
103 309.00 1500.01 181 223 1.520 10000.000 0.000 1.165
104 312.00 1500.01 195 290 1.520 10000.000 0.000 1.165
105 315.00 1500.01 203 276 1.520 10000.000 0.000 1.165
106 318.00 1500.01 220 347 1.520 10000.000 0.000 1.165
107 321.00 1500.01 217 341 1.520 10000.000 0.000 1.165
108 324.00 1500.01 209 408 1.520 10000.000 0.000 1.165
109 327.00 1500.01 199 487 1.520 10000.000 0.000 1.165
110 330.00 1500.01 216 540 1.520 10000.000 0.000 1.165
111 333.00 1500.01 215 582 1.520 10000.000 0.000 1.165
112 336.00 1500.01 205 623 1.520 10000.000 0.000 1.165
113 339.00 1500.01 171 656 1.520 10000.000 0.000 1.165
114 342.00 1500.01 182 739 1.520 10000.000 0.000 1.165
115 345.00 1500.01 166 732 1.520 10000.000 0.000 1.165
116 348.00 1500.01 163 712 1.520 10000.000 0.000 1.165
117 351.00 1500.01 143 755 1.520 10000.000 0.000 1.165
118 354.00 1500.01 165 742 1.520 10000.000 0.000 1.165
119 357.00 1500.01 162 696 1.520 10000.000 0.000 1.165
120 360.00 1500.01 161 693 1.520 10000.000 0.000 1.165
121 363.00 1500.01 151 597 1.520 10000.000 0.000 1.165
122 366.00 1500.01 157 540 1.520 10000.000 0.000 1.165
123 369.00 1500.01 161 498 1.520 10000.000 0.000 1.165
124 372.00 1500.01 172 450 1.520 10000.000 0.000 1.165
125 375.00 1500.01 167 328 1.520 10000.000 0.000 1.165
126 378.00 1500.01 157 374 1.520 10000.000 0.000 1.165
127 381.00 1500.01 166 313 1.520 10000.000 0.000 1.165
128 384.00 1500.01 170 292 1.520 10000.000 0.000 1.165
129 387.00 1500.01 179 261 1.520 10000.000 0.000 1.165
130 390.00 1500.01 184 242 1.520 10000.000 0.000 1.165
131 393.00 1500.01 168 229 1.520 10000.000 0.000 1.165
132 396.00 1500.01 205 216 1.520 10000.000 0.000 1.165
133 399.00 1500.01 169 230 1.520 10000.000 0.000 1.165
134 402.00 1500.01 186 236 1.520 10000.000 0.000 1.165
135 405.00 1500.01 201 243 1.520 10000.000 0.000 1.165
136 408.00 1500.01 227 250 1.520 10000.000 0.000 1.165
137 411.00 1500.01 244 269 1.520 10000.000 0.000 1.165
138 414.00 1500.01 232 251 1.520 10000.000 0.000 1.165
139 417.00 1500.01 263 310 1.520 10000.000 0.000 1.165
140 420.00 1500.01 200 357 1.520 10000.000 0.000 1.165
141 423.00 1500.01 249 412 1.520 10000.000 0.000 1.165
142 426.00 1500.01 219 444 1.520 10000.000 0.000 1.165
143 429.00 1500.01 210 514 1.520 10000.000 0.000 1.165
144 432.00 1500.01 203 577 1.520 10000.000 0.000 1.165
