# BinNR microsec tot-time (s)  O-Beam AUX Ampl(V) f(Hz) phase(deg) chi(pos)
0 0.00 1500.01 88 139 1.520 10000.000 0.000 -1.176
1 3.00 1500.01 179 282 1.520 10000.000 0.000 -1.176
2 6.00 1500.01 160 295 1.520 10000.000 0.000 -1.176
3 9.00 1500.01 162 261 1.520 10000.000 0.000 -1.176
4 12.00 1500.01 153 270 1.520 10000.000 0.000 -1.176
5 15.00 1500.01 157 226 1.520 10000.000 0.000 -1.176
6 18.00 1500.01 181 260 1.520 10000.000 0.000 -1.176
7 21.00 1500.01 175 205 1.520 10000.000 0.000 -1.176
8 24.00 1500.01 166 196 1.520 10000.000 0.000 -1.176
9 27.00 1500.01 188 193 1.520 10000.000 0.000 -1.176
10 30.00 1500.01 192 196 1.520 10000.000 0.000 -1.176
11 33.00 1500.01 197 208 1.520 10000.000 0.000 -1.176
12 36.00 1500.01 196 196 1.520 10000.000 0.000 -1.176
13 39.00 1500.01 186 208 1.520 10000.000 0.000 -1.176
14 42.00 1500.01 221 178 1.520 10000.000 0.000 -1.176
15 45.00 1500.01 225 225 1.520 10000.000 0.000 -1.176
16 48.00 1500.01 193 238 1.520 10000.000 0.000 -1.176
17 51.00 1500.01 181 219 1.520 10000.000 0.000 -1.176
18 54.00 1500.01 190 251 1.520 10000.000 0.000 -1.176
19 57.00 1500.01 169 263 1.520 10000.000 0.000 -1.176
20 60.00 1500.01 167 270 1.520 10000.000 0.000 -1.176
21 63.00 1500.01 170 265 1.520 10000.000 0.000 -1.176
22 66.00 1500.01 181 236 1.520 10000.000 0.000 -1.176
23 69.00 1500.01 158 216 1.520 10000.000 0.000 -1.176
24 72.00 1500.01 164 198 1.520 10000.000 0.000 -1.176
25 75.00 1500.01 169 171 1.520 10000.000 0.000 -1.176
26 78.00 1500.01 154 215 1.520 10000.000 0.000 -1.176
27 81.00 1500.01 169 191 1.520 10000.000 0.000 -1.176
28 84.00 1500.01 170 210 1.520 10000.000 0.000 -1.176
29 87.00 1500.01 170 220 1.520 10000.000 0.000 -1.176
30 90.00 1500.01 164 254 1.520 10000.000 0.000 -1.176
31 93.00 1500.01 182 272 1.520 10000.000 0.000 -1.176
32 96.00 1500.01 153 268 1.520 10000.000 0.000 -1.176
33 99.00 1500.01 145 242 1.520 10000.000 0.000 -1.176
34 102.00 1500.01 160 282 1.520 10000.000 0.000 -1.176
35 105.00 1500.01 151 256 1.520 10000.000 0.000 -1.176
36 108.00 1500.01 137 242 1.520 10000.000 0.000 -1.176
37 111.00 1500.01 165 230 1.520 10000.000 0.000 -1.176
38 114.00 1500.01 167 219 1.520 10000.000 0.000 -1.176
39 117.00 1500.01 184 213 1.520 10000.000 0.000 -1.176
40 120.00 1500.01 157 205 1.520 10000.000 0.000 -1.176
41 123.00 1500.01 171 179 1.520 10000.000 0.000 -1.176
42 126.00 1500.01 175 212 1.520 10000.000 0.000 -1.176
43 129.00 1500.01 188 230 1.520 10000.000 0.000 -1.176
44 132.00 1500.01 204 235 1.520 10000.000 0.000 -1.176
45 135.00 1500.01 184 273 1.520 10000.000 0.000 -1.176
46 138.00 1500.01 180 318 1.520 10000.000 0.000 -1.176
47 141.00 1500.01 211 327 1.520 10000.000 0.000 -1.176
48 144.00 1500.01 220 336 1.520 10000.000 0.000 -1.176
49 147.00 1500.01 184 317 1.520 10000.000 0.000 -1.176
50 150.00 1500.01 205 343 1.520 10000.000 0.000 -1.176
51 153.00 1500.01 195 339 1.520 10000.000 0.000 -1.176
52 156.00 1500.01 169 322 1.520 10000.000 0.000 -1.176
53 159.00 1500.01 163 303 1.520 10000.000 0.000 -1.176
54 162.00 1500.01 153 290 1.520 10000.000 0.000 -1.176
55 165.00 1500.01 180 265 1.520 10000.000 0.000 -1.176
56 168.00 1500.01 182 209 1.520 10000.000 0.000 -1.176
57 171.00 1500.01 163 192 1.520 10000.000 0.000 -1.176
58 174.00 1500.01 157 211 1.520 10000.000 0.000 -1.176
59 177.00 1500.01 168 200 1.520 10000.000 0.000 -1.176
60 180.00 1500.01 155 220 1.520 10000.000 0.000 -1.176
61 183.00 1500.01 146 233 1.520 10000.000 0.000 -1.176
62 186.00 1500.01 147 243 1.520 10000.000 0.000 -1.176
63 189.00 1500.01 161 248 1.520 10000.000 0.000 -1.176
64 192.00 1500.01 156 288 1.520 10000.000 0.000 -1.176
65 195.00 1500.01 145 321 1.520 10000.000 0.000 -1.176
66 198.00 1500.01 161 288 1.520 10000.000 0.000 -1.176
67 201.00 1500.01 183 270 1.520 10000.000 0.000 -1.176
68 204.00 1500.01 166 283 1.520 10000.000 0.000 -1.176
69 207.00 1500.01 142 242 1.520 10000.000 0.000 -1.176
70 210.00 1500.01 154 235 1.520 10000.000 0.000 -1.176
71 213.00 1500.01 164 198 1.520 10000.000 0.000 -1.176
72 216.00 1500.01 156 177 1.520 10000.000 0.000 -1.176
73 219.00 1500.01 154 189 1.520 10000.000 0.000 -1.176
74 222.00 1500.01 195 191 1.520 10000.000 0.000 -1.176
75 225.00 1500.01 166 205 1.520 10000.000 0.000 -1.176
76 228.00 1500.01 199 213 1.520 10000.000 0.000 -1.176
77 231.00 1500.01 192 249 1.520 10000.000 0.000 -1.176
78 234.00 1500.01 203 226 1.520 10000.000 0.000 -1.176
79 237.00 1500.01 157 283 1.520 10000.000 0.000 -1.176
80 240.00 1500.01 207 305 1.520 10000.000 0.000 -1.176
81 243.00 1500.01 174 319 1.520 10000.000 0.000 -1.176
82 246.00 1500.01 186 301 1.520 10000.000 0.000 -1.176
83 249.00 1500.01 203 333 1.520 10000.000 0.000 -1.176
84 252.00 1500.01 169 326 1.520 10000.000 0.000 -1.176
85 255.00 1500.01 198 338 1.520 10000.000 0.000 -1.176
86 258.00 1500.01 177 308 1.520 10000.000 0.000 -1.176
87 261.00 1500.01 157 286 1.520 10000.000 0.000 -1.176
88 264.00 1500.01 145 252 1.520 10000.000 0.000 -1.176
89 267.00 1500.01 190 226 1.520 10000.000 0.000 -1.176
90 270.00 1500.01 170 212 1.520 10000.000 0.000 -1.176
91 273.00 1500.01 158 188 1.520 10000.000 0.000 -1.176
92 276.00 1500.01 175 208 1.520 10000.000 0.000 -1.176
93 279.00 1500.01 154 210 1.520 10000.000 0.000 -1.176
94 282.00 1500.01 165 228 1.520 10000.000 0.000 -1.176
95 285.00 1500.01 163 226 1.520 10000.000 0.000 -1.176
96 288.00 1500.01 166 269 1.520 10000.000 0.000 -1.176
97 291.00 1500.01 151 254 1.520 10000.000 0.000 -1.176
98 294.00 1500.01 149 283 1.520 10000.000 0.000 -1.176
99 297.00 1500.01 153 273 1.520 10000.000 0.000 -1.176
100 300.00 1500.01 159 277 1.520 10000.000 0.000 -1.176
101 303.00 1500.01 169 251 1.520 10000.000 0.000 -1.176
102 306.00 1500.01 177 251 1.520 10000.000 0.000 -1.176
103 309.00 1500.01 163 240 1.520 10000.000 0.000 -1.176
104 312.00 1500.01 177 215 1.520 10000.000 0.000 -1.176
105 315.00 1500.01 147 213 1.520 10000.000 0.000 -1.176
106 318.00 1500.01 174 211 1.520 10000.000 0.000 -1.176
107 321.00 1500.01 160 191 1.520 10000.000 0.000 -1.176
108 324.00 1500.01 136 210 1.520 10000.000 0.000 -1.176
109 327.00 1500.01 159 212 1.520 10000.000 0.000 -1.176
110 330.00 1500.01 154 222 1.520 10000.000 0.000 -1.176
111 333.00 1500.01 148 234 1.520 10000.000 0.000 -1.176
112 336.00 1500.01 164 288 1.520 10000.000 0.000 -1.176
113 339.00 1500.01 133 283 1.520 10000.000 0.000 -1.176
114 342.00 1500.01 163 335 1.520 10000.000 0.000 -1.176
115 345.00 1500.01 161 354 1.520 10000.000 0.000 -1.176
116 348.00 1500.01 159 377 1.520 10000.000 0.000 -1.176
117 351.00 1500.01 149 343 1.520 10000.000 0.000 -1.176
118 354.00 1500.01 166 332 1.520 10000.000 0.000 -1.176
119 357.00 1500.01 200 302 1.520 10000.000 0.000 -1.176
120 360.00 1500.01 200 276 1.520 10000.000 0.000 -1.176
121 363.00 1500.01 202 270 1.520 10000.000 0.000 -1.176
122 366.00 1500.01 176 243 1.520 10000.000 0.000 -1.176
123 369.00 1500.01 200 225 1.520 10000.000 0.000 -1.176
124 372.00 1500.01 192 208 1.520 10000.000 0.000 -1.176
125 375.00 1500.01 200 178 1.520 10000.000 0.000 -1.176
126 378.00 1500.01 194 209 1.520 10000.000 0.000 -1.176
127 381.00 1500.01 181 202 1.520 10000.000 0.000 -1.176
128 384.00 1500.01 178 239 1.520 10000.000 0.000 -1.176
129 387.00 1500.01 185 238 1.520 10000.000 0.000 -1.176
130 390.00 1500.01 192 255 1.520 10000.000 0.000 -1.176
131 393.00 1500.01 167 269 1.520 10000.000 0.000 -1.176
132 396.00 1500.01 182 240 1.520 10000.000 0.000 -1.176
133 399.00 1500.01 161 269 1.520 10000.000 0.000 -1.176
134 402.00 1500.01 167 291 1.520 10000.000 0.000 -1.176
135 405.00 1500.01 184 253 1.520 10000.000 0.000 -1.176
136 408.00 1500.01 164 217 1.520 10000.000 0.000 -1.176
137 411.00 1500.01 164 227 1.520 10000.000 0.000 -1.176
138 414.00 1500.01 156 195 1.520 10000.000 0.000 -1.176
139 417.00 1500.01 152 180 1.520 10000.000 0.000 -1.176
140 420.00 1500.01 190 182 1.520 10000.000 0.000 -1.176
141 423.00 1500.01 156 191 1.520 10000.000 0.000 -1.176
142 426.00 1500.01 193 205 1.520 10000.000 0.000 -1.176
143 429.00 1500.01 167 236 1.520 10000.000 0.000 -1.176
144 432.00 1500.01 170 264 1.520 10000.000 0.000 -1.176
