# BinNR microsec tot-time (s)  O-Beam AUX Ampl(V) f(Hz) phase(deg) chi(pos)
0 0.00 1500.00 135 235 1.520 10000.000 0.000 0.330
1 3.00 1500.00 286 439 1.520 10000.000 0.000 0.330
2 6.00 1500.00 279 443 1.520 10000.000 0.000 0.330
3 9.00 1500.00 304 471 1.520 10000.000 0.000 0.330
4 12.00 1500.00 333 491 1.520 10000.000 0.000 0.330
5 15.00 1500.00 356 532 1.520 10000.000 0.000 0.330
6 18.00 1500.00 315 586 1.520 10000.000 0.000 0.330
7 21.00 1500.00 399 608 1.520 10000.000 0.000 0.330
8 24.00 1500.00 361 633 1.520 10000.000 0.000 0.330
9 27.00 1500.00 369 653 1.520 10000.000 0.000 0.330
10 30.00 1500.00 364 669 1.520 10000.000 0.000 0.330
11 33.00 1500.00 332 667 1.520 10000.000 0.000 0.330
12 36.00 1500.00 411 716 1.520 10000.000 0.000 0.330
13 39.00 1500.00 376 657 1.520 10000.000 0.000 0.330
14 42.00 1500.00 384 710 1.520 10000.000 0.000 0.330
15 45.00 1500.00 382 583 1.520 10000.000 0.000 0.330
16 48.00 1500.00 373 567 1.520 10000.000 0.000 0.330
17 51.00 1500.00 353 528 1.520 10000.000 0.000 0.330
18 54.00 1500.00 349 506 1.520 10000.000 0.000 0.330
19 57.00 1500.00 332 442 1.520 10000.000 0.000 0.330
20 60.00 1500.00 334 517 1.520 10000.000 0.000 0.330
21 63.00 1500.00 293 483 1.520 10000.000 0.000 0.330
22 66.00 1500.00 337 552 1.520 10000.000 0.000 0.330
23 69.00 1500.00 311 564 1.520 10000.000 0.000 0.330
24 72.00 1500.00 245 666 1.520 10000.000 0.000 0.330
25 75.00 1500.00 263 697 1.520 10000.000 0.000 0.330
26 78.00 1500.00 254 765 1.520 10000.000 0.000 0.330
27 81.00 1500.00 235 796 1.520 10000.000 0.000 0.330
28 84.00 1500.00 260 908 1.520 10000.000 0.000 0.330
29 87.00 1500.00 262 911 1.520 10000.000 0.000 0.330
30 90.00 1500.00 261 954 1.520 10000.000 0.000 0.330
31 93.00 1500.00 260 980 1.520 10000.000 0.000 0.330
32 96.00 1500.00 259 963 1.520 10000.000 0.000 0.330
33 99.00 1500.00 256 980 1.520 10000.000 0.000 0.330
34 102.00 1500.00 300 1044 1.520 10000.000 0.000 0.330
35 105.00 1500.00 284 966 1.520 10000.000 0.000 0.330
36 108.00 1500.00 273 973 1.520 10000.000 0.000 0.330
37 111.00 1500.00 298 865 1.520 10000.000 0.000 0.330
38 114.00 1500.00 307 856 1.520 10000.000 0.000 0.330
39 117.00 1500.00 342 820 1.520 10000.000 0.000 0.330
40 120.00 1500.00 347 807 1.520 10000.000 0.000 0.330
41 123.00 1500.00 352 702 1.520 10000.000 0.000 0.330
42 126.00 1500.00 366 661 1.520 10000.000 0.000 0.330
43 129.00 1500.00 370 588 1.520 10000.000 0.000 0.330
44 132.00 1500.00 376 513 1.520 10000.000 0.000 0.330
45 135.00 1500.00 354 496 1.520 10000.000 0.000 0.330
46 138.00 1500.00 387 444 1.520 10000.000 0.000 0.330
47 141.00 1500.00 373 365 1.520 10000.000 0.000 0.330
48 144.00 1500.00 382 383 1.520 10000.000 0.000 0.330
49 147.00 1500.00 378 384 1.520 10000.000 0.000 0.330
50 150.00 1500.00 369 382 1.520 10000.000 0.000 0.330
51 153.00 1500.00 340 396 1.520 10000.000 0.000 0.330
52 156.00 1500.00 313 392 1.520 10000.000 0.000 0.330
53 159.00 1500.00 302 434 1.520 10000.000 0.000 0.330
54 162.00 1500.00 329 491 1.520 10000.000 0.000 0.330
55 165.00 1500.00 265 542 1.520 10000.000 0.000 0.330
56 168.00 1500.00 285 576 1.520 10000.000 0.000 0.330
57 171.00 1500.00 262 642 1.520 10000.000 0.000 0.330
58 174.00 1500.00 256 717 1.520 10000.000 0.000 0.330
59 177.00 1500.00 276 718 1.520 10000.000 0.000 0.330
60 180.00 1500.00 266 795 1.520 10000.000 0.000 0.330
61 183.00 1500.00 230 864 1.520 10000.000 0.000 0.330
62 186.00 1500.00 253 921 1.520 10000.000 0.000 0.330
63 189.00 1500.00 265 1023 1.520 10000.000 0.000 0.330
64 192.00 1500.00 268 980 1.520 10000.000 0.000 0.330
65 195.00 1500.00 239 984 1.520 10000.000 0.000 0.330
66 198.00 1500.00 264 970 1.520 10000.000 0.000 0.330
67 201.00 1500.00 227 1022 1.520 10000.000 0.000 0.330
68 204.00 1500.00 310 972 1.520 10000.000 0.000 0.330
69 207.00 1500.00 304 975 1.520 10000.000 0.000 0.330
70 210.00 1500.00 325 902 1.520 10000.000 0.000 0.330
71 213.00 1500.00 350 854 1.520 10000.000 0.000 0.330
72 216.00 1500.00 323 869 1.520 10000.000 0.000 0.330
73 219.00 1500.00 328 758 1.520 10000.000 0.000 0.330
74 222.00 1500.00 352 700 1.520 10000.000 0.000 0.330
75 225.00 1500.00 342 624 1.520 10000.000 0.000 0.330
76 228.00 1500.00 393 598 1.520 10000.000 0.000 0.330
77 231.00 1500.00 371 535 1.520 10000.000 0.000 0.330
78 234.00 1500.00 386 513 1.520 10000.000 0.000 0.330
79 237.00 1500.00 377 419 1.520 10000.000 0.000 0.330
80 240.00 1500.00 369 409 1.520 10000.000 0.000 0.330
81 243.00 1500.00 367 369 1.520 10000.000 0.000 0.330
82 246.00 1500.00 380 385 1.520 10000.000 0.000 0.330
83 249.00 1500.00 345 350 1.520 10000.000 0.000 0.330
84 252.00 1500.00 376 416 1.520 10000.000 0.000 0.330
85 255.00 1500.00 329 409 1.520 10000.000 0.000 0.330
86 258.00 1500.00 299 391 1.520 10000.000 0.000 0.330
87 261.00 1500.00 320 445 1.520 10000.000 0.000 0.330
88 264.00 1500.00 287 548 1.520 10000.000 0.000 0.330
89 267.00 1500.00 293 516 1.520 10000.000 0.000 0.330
90 270.00 1500.00 271 607 1.520 10000.000 0.000 0.330
91 273.00 1500.00 269 597 1.520 10000.000 0.000 0.330
92 276.00 1500.00 250 739 1.520 10000.000 0.000 0.330
93 279.00 1500.00 252 765 1.520 10000.000 0.000 0.330
94 282.00 1500.00 294 953 1.520 10000.000 0.000 0.330
95 285.00 1500.00 278 899 1.520 10000.000 0.000 0.330
96 288.00 1500.00 305 979 1.520 10000.000 0.000 0.330
97 291.00 1500.00 281 947 1.520 10000.000 0.000 0.330
98 294.00 1500.00 291 1009 1.520 10000.000 0.000 0.330
99 297.00 1500.00 314 981 1.520 10000.000 0.000 0.330
100 300.00 1500.00 297 981 1.520 10000.000 0.000 0.330
101 303.00 1500.00 304 997 1.520 10000.000 0.000 0.330
102 306.00 1500.00 295 1010 1.520 10000.000 0.000 0.330
103 309.00 1500.00 288 901 1.520 10000.000 0.000 0.330
104 312.00 1500.00 258 969 1.520 10000.000 0.000 0.330
105 315.00 1500.00 289 827 1.520 10000.000 0.000 0.330
106 318.00 1500.00 289 841 1.520 10000.000 0.000 0.330
107 321.00 1500.00 277 722 1.520 10000.000 0.000 0.330
108 324.00 1500.00 285 733 1.520 10000.000 0.000 0.330
109 327.00 1500.00 261 623 1.520 10000.000 0.000 0.330
110 330.00 1500.00 292 582 1.520 10000.000 0.000 0.330
111 333.00 1500.00 294 502 1.520 10000.000 0.000 0.330
112 336.00 1500.00 272 432 1.520 10000.000 0.000 0.330
113 339.00 1500.00 303 400 1.520 10000.000 0.000 0.330
114 342.00 1500.00 319 435 1.520 10000.000 0.000 0.330
115 345.00 1500.00 345 372 1.520 10000.000 0.000 0.330
116 348.00 1500.00 354 367 1.520 10000.000 0.000 0.330
117 351.00 1500.00 343 420 1.520 10000.000 0.000 0.330
118 354.00 1500.00 356 412 1.520 10000.000 0.000 0.330
119 357.00 1500.00 353 430 1.520 10000.000 0.000 0.330
120 360.00 1500.00 360 441 1.520 10000.000 0.000 0.330
121 363.00 1500.00 345 477 1.520 10000.000 0.000 0.330
122 366.00 1500.00 353 542 1.520 10000.000 0.000 0.330
123 369.00 1500.00 360 586 1.520 10000.000 0.000 0.330
124 372.00 1500.00 352 680 1.520 10000.000 0.000 0.330
125 375.00 1500.00 373 770 1.520 10000.000 0.000 0.330
126 378.00 1500.00 345 799 1.520 10000.000 0.000 0.330
127 381.00 1500.00 352 821 1.520 10000.000 0.000 0.330
128 384.00 1500.00 397 909 1.520 10000.000 0.000 0.330
129 387.00 1500.00 358 959 1.520 10000.000 0.000 0.330
130 390.00 1500.00 355 1016 1.520 10000.000 0.000 0.330
131 393.00 1500.00 310 1001 1.520 10000.000 0.000 0.330
132 396.00 1500.00 288 1054 1.520 10000.000 0.000 0.330
133 399.00 1500.00 292 944 1.520 10000.000 0.000 0.330
134 402.00 1500.00 291 1013 1.520 10000.000 0.000 0.330
135 405.00 1500.00 287 933 1.520 10000.000 0.000 0.330
136 408.00 1500.00 256 954 1.520 10000.000 0.000 0.330
137 411.00 1500.00 262 908 1.520 10000.000 0.000 0.330
138 414.00 1500.00 281 887 1.520 10000.000 0.000 0.330
139 417.00 1500.00 224 826 1.520 10000.000 0.000 0.330
140 420.00 1500.00 244 780 1.520 10000.000 0.000 0.330
141 423.00 1500.00 267 730 1.520 10000.000 0.000 0.330
142 426.00 1500.00 230 653 1.520 10000.000 0.000 0.330
143 429.00 1500.00 217 619 1.520 10000.000 0.000 0.330
144 432.00 1500.00 257 502 1.520 10000.000 0.000 0.330
