# BinNR microsec tot-time (s)  O-Beam AUX Ampl(V) f(Hz) phase(deg) chi(pos)
0 0.00 1500.01 80 118 1.520 10000.000 0.000 0.835
1 3.00 1500.01 152 222 1.520 10000.000 0.000 0.835
2 6.00 1500.01 149 257 1.520 10000.000 0.000 0.835
3 9.00 1500.01 154 238 1.520 10000.000 0.000 0.835
4 12.00 1500.01 147 236 1.520 10000.000 0.000 0.835
5 15.00 1500.01 159 223 1.520 10000.000 0.000 0.835
6 18.00 1500.01 167 191 1.520 10000.000 0.000 0.835
7 21.00 1500.01 161 199 1.520 10000.000 0.000 0.835
8 24.00 1500.01 183 184 1.520 10000.000 0.000 0.835
9 27.00 1500.01 194 181 1.520 10000.000 0.000 0.835
10 30.00 1500.01 185 207 1.520 10000.000 0.000 0.835
11 33.00 1500.01 171 179 1.520 10000.000 0.000 0.835
12 36.00 1500.01 182 204 1.520 10000.000 0.000 0.835
13 39.00 1500.01 210 158 1.520 10000.000 0.000 0.835
14 42.00 1500.01 211 179 1.520 10000.000 0.000 0.835
15 45.00 1500.01 168 167 1.520 10000.000 0.000 0.835
16 48.00 1500.01 205 196 1.520 10000.000 0.000 0.835
17 51.00 1500.01 176 188 1.520 10000.000 0.000 0.835
18 54.00 1500.01 207 216 1.520 10000.000 0.000 0.835
19 57.00 1500.01 176 229 1.520 10000.000 0.000 0.835
20 60.00 1500.01 151 231 1.520 10000.000 0.000 0.835
21 63.00 1500.01 170 223 1.520 10000.000 0.000 0.835
22 66.00 1500.01 157 226 1.520 10000.000 0.000 0.835
23 69.00 1500.01 160 207 1.520 10000.000 0.000 0.835
24 72.00 1500.01 161 201 1.520 10000.000 0.000 0.835
25 75.00 1500.01 155 183 1.520 10000.000 0.000 0.835
26 78.00 1500.01 163 206 1.520 10000.000 0.000 0.835
27 81.00 1500.01 162 183 1.520 10000.000 0.000 0.835
28 84.00 1500.01 140 229 1.520 10000.000 0.000 0.835
29 87.00 1500.01 141 260 1.520 10000.000 0.000 0.835
30 90.00 1500.01 134 252 1.520 10000.000 0.000 0.835
31 93.00 1500.01 154 253 1.520 10000.000 0.000 0.835
32 96.00 1500.01 145 267 1.520 10000.000 0.000 0.835
33 99.00 1500.01 163 276 1.520 10000.000 0.000 0.835
34 102.00 1500.01 145 287 1.520 10000.000 0.000 0.835
35 105.00 1500.01 128 285 1.520 10000.000 0.000 0.835
36 108.00 1500.01 161 267 1.520 10000.000 0.000 0.835
37 111.00 1500.01 151 211 1.520 10000.000 0.000 0.835
38 114.00 1500.01 166 252 1.520 10000.000 0.000 0.835
39 117.00 1500.01 167 176 1.520 10000.000 0.000 0.835
40 120.00 1500.01 160 203 1.520 10000.000 0.000 0.835
41 123.00 1500.01 202 171 1.520 10000.000 0.000 0.835
42 126.00 1500.01 218 191 1.520 10000.000 0.000 0.835
43 129.00 1500.01 208 193 1.520 10000.000 0.000 0.835
44 132.00 1500.01 217 232 1.520 10000.000 0.000 0.835
45 135.00 1500.01 205 206 1.520 10000.000 0.000 0.835
46 138.00 1500.01 222 260 1.520 10000.000 0.000 0.835
47 141.00 1500.01 211 278 1.520 10000.000 0.000 0.835
48 144.00 1500.01 188 272 1.520 10000.000 0.000 0.835
49 147.00 1500.01 203 307 1.520 10000.000 0.000 0.835
50 150.00 1500.01 181 329 1.520 10000.000 0.000 0.835
51 153.00 1500.01 196 304 1.520 10000.000 0.000 0.835
52 156.00 1500.01 159 261 1.520 10000.000 0.000 0.835
53 159.00 1500.01 182 241 1.520 10000.000 0.000 0.835
54 162.00 1500.01 171 227 1.520 10000.000 0.000 0.835
55 165.00 1500.01 153 215 1.520 10000.000 0.000 0.835
56 168.00 1500.01 188 218 1.520 10000.000 0.000 0.835
57 171.00 1500.01 139 199 1.520 10000.000 0.000 0.835
58 174.00 1500.01 142 197 1.520 10000.000 0.000 0.835
59 177.00 1500.01 147 182 1.520 10000.000 0.000 0.835
60 180.00 1500.01 191 202 1.520 10000.000 0.000 0.835
61 183.00 1500.01 157 230 1.520 10000.000 0.000 0.835
62 186.00 1500.01 153 229 1.520 10000.000 0.000 0.835
63 189.00 1500.01 157 246 1.520 10000.000 0.000 0.835
64 192.00 1500.01 141 305 1.520 10000.000 0.000 0.835
65 195.00 1500.01 152 273 1.520 10000.000 0.000 0.835
66 198.00 1500.01 173 286 1.520 10000.000 0.000 0.835
67 201.00 1500.01 135 261 1.520 10000.000 0.000 0.835
68 204.00 1500.01 170 268 1.520 10000.000 0.000 0.835
69 207.00 1500.01 126 247 1.520 10000.000 0.000 0.835
70 210.00 1500.01 143 245 1.520 10000.000 0.000 0.835
71 213.00 1500.01 129 230 1.520 10000.000 0.000 0.835
72 216.00 1500.01 169 193 1.520 10000.000 0.000 0.835
73 219.00 1500.01 182 167 1.520 10000.000 0.000 0.835
74 222.00 1500.01 180 194 1.520 10000.000 0.000 0.835
75 225.00 1500.01 195 195 1.520 10000.000 0.000 0.835
76 228.00 1500.01 219 167 1.520 10000.000 0.000 0.835
77 231.00 1500.01 174 227 1.520 10000.000 0.000 0.835
78 234.00 1500.01 197 230 1.520 10000.000 0.000 0.835
79 237.00 1500.01 213 265 1.520 10000.000 0.000 0.835
80 240.00 1500.01 214 276 1.520 10000.000 0.000 0.835
81 243.00 1500.01 190 283 1.520 10000.000 0.000 0.835
82 246.00 1500.01 207 301 1.520 10000.000 0.000 0.835
83 249.00 1500.01 211 282 1.520 10000.000 0.000 0.835
84 252.00 1500.01 195 275 1.520 10000.000 0.000 0.835
85 255.00 1500.01 176 316 1.520 10000.000 0.000 0.835
86 258.00 1500.01 185 234 1.520 10000.000 0.000 0.835
87 261.00 1500.01 179 252 1.520 10000.000 0.000 0.835
88 264.00 1500.01 184 218 1.520 10000.000 0.000 0.835
89 267.00 1500.01 161 185 1.520 10000.000 0.000 0.835
90 270.00 1500.01 174 192 1.520 10000.000 0.000 0.835
91 273.00 1500.01 141 193 1.520 10000.000 0.000 0.835
92 276.00 1500.01 170 193 1.520 10000.000 0.000 0.835
93 279.00 1500.01 173 200 1.520 10000.000 0.000 0.835
94 282.00 1500.01 158 183 1.520 10000.000 0.000 0.835
95 285.00 1500.01 135 227 1.520 10000.000 0.000 0.835
96 288.00 1500.01 126 261 1.520 10000.000 0.000 0.835
97 291.00 1500.01 138 277 1.520 10000.000 0.000 0.835
98 294.00 1500.01 130 296 1.520 10000.000 0.000 0.835
99 297.00 1500.01 150 259 1.520 10000.000 0.000 0.835
100 300.00 1500.01 165 262 1.520 10000.000 0.000 0.835
101 303.00 1500.01 156 269 1.520 10000.000 0.000 0.835
102 306.00 1500.01 161 239 1.520 10000.000 0.000 0.835
103 309.00 1500.01 155 265 1.520 10000.000 0.000 0.835
104 312.00 1500.01 164 240 1.520 10000.000 0.000 0.835
105 315.00 1500.01 158 216 1.520 10000.000 0.000 0.835
106 318.00 1500.01 169 170 1.520 10000.000 0.000 0.835
107 321.00 1500.01 164 162 1.520 10000.000 0.000 0.835
108 324.00 1500.01 180 160 1.520 10000.000 0.000 0.835
109 327.00 1500.01 142 166 1.520 10000.000 0.000 0.835
110 330.00 1500.01 145 195 1.520 10000.000 0.000 0.835
111 333.00 1500.01 154 203 1.520 10000.000 0.000 0.835
112 336.00 1500.01 151 232 1.520 10000.000 0.000 0.835
113 339.00 1500.01 154 217 1.520 10000.000 0.000 0.835
114 342.00 1500.01 148 293 1.520 10000.000 0.000 0.835
115 345.00 1500.01 133 312 1.520 10000.000 0.000 0.835
116 348.00 1500.01 177 299 1.520 10000.000 0.000 0.835
117 351.00 1500.01 172 267 1.520 10000.000 0.000 0.835
118 354.00 1500.01 175 320 1.520 10000.000 0.000 0.835
119 357.00 1500.01 161 259 1.520 10000.000 0.000 0.835
120 360.00 1500.01 172 235 1.520 10000.000 0.000 0.835
121 363.00 1500.01 180 231 1.520 10000.000 0.000 0.835
122 366.00 1500.01 209 223 1.520 10000.000 0.000 0.835
123 369.00 1500.01 185 209 1.520 10000.000 0.000 0.835
124 372.00 1500.01 216 191 1.520 10000.000 0.000 0.835
125 375.00 1500.01 191 188 1.520 10000.000 0.000 0.835
126 378.00 1500.01 179 197 1.520 10000.000 0.000 0.835
127 381.00 1500.01 182 198 1.520 10000.000 0.000 0.835
128 384.00 1500.01 182 200 1.520 10000.000 0.000 0.835
129 387.00 1500.01 183 241 1.520 10000.000 0.000 0.835
130 390.00 1500.01 206 241 1.520 10000.000 0.000 0.835
131 393.00 1500.01 137 241 1.520 10000.000 0.000 0.835
132 396.00 1500.01 177 302 1.520 10000.000 0.000 0.835
133 399.00 1500.01 159 277 1.520 10000.000 0.000 0.835
134 402.00 1500.01 145 294 1.520 10000.000 0.000 0.835
135 405.00 1500.01 150 274 1.520 10000.000 0.000 0.835
136 408.00 1500.01 167 250 1.520 10000.000 0.000 0.835
137 411.00 1500.01 167 251 1.520 10000.000 0.000 0.835
138 414.00 1500.01 152 213 1.520 10000.000 0.000 0.835
139 417.00 1500.01 156 214 1.520 10000.000 0.000 0.835
140 420.00 1500.01 151 199 1.520 10000.000 0.000 0.835
141 423.00 1500.01 159 194 1.520 10000.000 0.000 0.835
142 426.00 1500.01 164 176 1.520 10000.000 0.000 0.835
143 429.00 1500.01 135 207 1.520 10000.000 0.000 0.835
144 432.00 1500.01 123 220 1.520 10000.000 0.000 0.835
