# BinNR microsec tot-time (s)  O-Beam AUX Ampl(V) f(Hz) phase(deg) chi(pos)
0 0.00 1500.02 164 513 1.520 10000.000 0.000 -0.670
1 3.00 1500.02 299 1054 1.520 10000.000 0.000 -0.670
2 6.00 1500.02 320 1122 1.520 10000.000 0.000 -0.670
3 9.00 1500.02 271 988 1.520 10000.000 0.000 -0.670
4 12.00 1500.02 254 1034 1.520 10000.000 0.000 -0.670
5 15.00 1500.02 270 1014 1.520 10000.000 0.000 -0.670
6 18.00 1500.02 247 968 1.520 10000.000 0.000 -0.670
7 21.00 1500.02 223 932 1.520 10000.000 0.000 -0.670
8 24.00 1500.02 229 867 1.520 10000.000 0.000 -0.670
9 27.00 1500.02 182 892 1.520 10000.000 0.000 -0.670
10 30.00 1500.02 222 860 1.520 10000.000 0.000 -0.670
11 33.00 1500.02 215 855 1.520 10000.000 0.000 -0.670
12 36.00 1500.02 193 857 1.520 10000.000 0.000 -0.670
13 39.00 1500.02 212 848 1.520 10000.000 0.000 -0.670
14 42.00 1500.02 224 919 1.520 10000.000 0.000 -0.670
15 45.00 1500.02 247 873 1.520 10000.000 0.000 -0.670
16 48.00 1500.02 219 978 1.520 10000.000 0.000 -0.670
17 51.00 1500.02 189 945 1.520 10000.000 0.000 -0.670
18 54.00 1500.02 260 974 1.520 10000.000 0.000 -0.670
19 57.00 1500.02 233 993 1.520 10000.000 0.000 -0.670
20 60.00 1500.02 248 1013 1.520 10000.000 0.000 -0.670
21 63.00 1500.02 295 1012 1.520 10000.000 0.000 -0.670
22 66.00 1500.02 294 971 1.520 10000.000 0.000 -0.670
23 69.00 1500.02 326 971 1.520 10000.000 0.000 -0.670
24 72.00 1500.02 309 865 1.520 10000.000 0.000 -0.670
25 75.00 1500.02 348 759 1.520 10000.000 0.000 -0.670
26 78.00 1500.02 321 730 1.520 10000.000 0.000 -0.670
27 81.00 1500.02 318 690 1.520 10000.000 0.000 -0.670
28 84.00 1500.02 315 689 1.520 10000.000 0.000 -0.670
29 87.00 1500.02 340 606 1.520 10000.000 0.000 -0.670
30 90.00 1500.02 358 564 1.520 10000.000 0.000 -0.670
31 93.00 1500.02 344 497 1.520 10000.000 0.000 -0.670
32 96.00 1500.02 366 484 1.520 10000.000 0.000 -0.670
33 99.00 1500.02 334 501 1.520 10000.000 0.000 -0.670
34 102.00 1500.02 319 540 1.520 10000.000 0.000 -0.670
35 105.00 1500.02 271 476 1.520 10000.000 0.000 -0.670
36 108.00 1500.02 291 591 1.520 10000.000 0.000 -0.670
37 111.00 1500.02 262 574 1.520 10000.000 0.000 -0.670
38 114.00 1500.02 242 602 1.520 10000.000 0.000 -0.670
39 117.00 1500.02 240 681 1.520 10000.000 0.000 -0.670
40 120.00 1500.02 209 721 1.520 10000.000 0.000 -0.670
41 123.00 1500.02 219 808 1.520 10000.000 0.000 -0.670
42 126.00 1500.02 209 893 1.520 10000.000 0.000 -0.670
43 129.00 1500.02 215 949 1.520 10000.000 0.000 -0.670
44 132.00 1500.02 192 1045 1.520 10000.000 0.000 -0.670
45 135.00 1500.02 200 1019 1.520 10000.000 0.000 -0.670
46 138.00 1500.02 210 1156 1.520 10000.000 0.000 -0.670
47 141.00 1500.02 197 1099 1.520 10000.000 0.000 -0.670
48 144.00 1500.02 203 1101 1.520 10000.000 0.000 -0.670
49 147.00 1500.02 205 1156 1.520 10000.000 0.000 -0.670
50 150.00 1500.02 219 1083 1.520 10000.000 0.000 -0.670
51 153.00 1500.02 219 1072 1.520 10000.000 0.000 -0.670
52 156.00 1500.02 268 1138 1.520 10000.000 0.000 -0.670
53 159.00 1500.02 255 1066 1.520 10000.000 0.000 -0.670
54 162.00 1500.02 265 1077 1.520 10000.000 0.000 -0.670
55 165.00 1500.02 300 985 1.520 10000.000 0.000 -0.670
56 168.00 1500.02 337 966 1.520 10000.000 0.000 -0.670
57 171.00 1500.02 302 847 1.520 10000.000 0.000 -0.670
58 174.00 1500.02 360 854 1.520 10000.000 0.000 -0.670
59 177.00 1500.02 333 742 1.520 10000.000 0.000 -0.670
60 180.00 1500.02 313 732 1.520 10000.000 0.000 -0.670
61 183.00 1500.02 343 632 1.520 10000.000 0.000 -0.670
62 186.00 1500.02 385 579 1.520 10000.000 0.000 -0.670
63 189.00 1500.02 315 540 1.520 10000.000 0.000 -0.670
64 192.00 1500.02 355 487 1.520 10000.000 0.000 -0.670
65 195.00 1500.02 319 496 1.520 10000.000 0.000 -0.670
66 198.00 1500.02 322 454 1.520 10000.000 0.000 -0.670
67 201.00 1500.02 314 478 1.520 10000.000 0.000 -0.670
68 204.00 1500.02 332 548 1.520 10000.000 0.000 -0.670
69 207.00 1500.02 306 530 1.520 10000.000 0.000 -0.670
70 210.00 1500.02 280 595 1.520 10000.000 0.000 -0.670
71 213.00 1500.02 235 605 1.520 10000.000 0.000 -0.670
72 216.00 1500.02 264 686 1.520 10000.000 0.000 -0.670
73 219.00 1500.02 217 703 1.520 10000.000 0.000 -0.670
74 222.00 1500.02 217 801 1.520 10000.000 0.000 -0.670
75 225.00 1500.02 227 848 1.520 10000.000 0.000 -0.670
76 228.00 1500.02 191 976 1.520 10000.000 0.000 -0.670
77 231.00 1500.02 200 989 1.520 10000.000 0.000 -0.670
78 234.00 1500.02 216 1079 1.520 10000.000 0.000 -0.670
79 237.00 1500.02 207 1106 1.520 10000.000 0.000 -0.670
80 240.00 1500.02 199 1151 1.520 10000.000 0.000 -0.670
81 243.00 1500.02 191 1107 1.520 10000.000 0.000 -0.670
82 246.00 1500.02 217 1144 1.520 10000.000 0.000 -0.670
83 249.00 1500.02 219 1076 1.520 10000.000 0.000 -0.670
84 252.00 1500.02 209 1104 1.520 10000.000 0.000 -0.670
85 255.00 1500.02 220 1047 1.520 10000.000 0.000 -0.670
86 258.00 1500.02 268 1115 1.520 10000.000 0.000 -0.670
87 261.00 1500.02 245 1054 1.520 10000.000 0.000 -0.670
88 264.00 1500.02 296 1081 1.520 10000.000 0.000 -0.670
89 267.00 1500.02 280 990 1.520 10000.000 0.000 -0.670
90 270.00 1500.02 311 845 1.520 10000.000 0.000 -0.670
91 273.00 1500.02 319 845 1.520 10000.000 0.000 -0.670
92 276.00 1500.02 290 788 1.520 10000.000 0.000 -0.670
93 279.00 1500.02 328 714 1.520 10000.000 0.000 -0.670
94 282.00 1500.02 308 665 1.520 10000.000 0.000 -0.670
95 285.00 1500.02 333 556 1.520 10000.000 0.000 -0.670
96 288.00 1500.02 309 581 1.520 10000.000 0.000 -0.670
97 291.00 1500.02 270 503 1.520 10000.000 0.000 -0.670
98 294.00 1500.02 266 563 1.520 10000.000 0.000 -0.670
99 297.00 1500.02 232 521 1.520 10000.000 0.000 -0.670
100 300.00 1500.02 278 489 1.520 10000.000 0.000 -0.670
101 303.00 1500.02 256 562 1.520 10000.000 0.000 -0.670
102 306.00 1500.02 275 560 1.520 10000.000 0.000 -0.670
103 309.00 1500.02 281 555 1.520 10000.000 0.000 -0.670
104 312.00 1500.02 290 614 1.520 10000.000 0.000 -0.670
105 315.00 1500.02 301 677 1.520 10000.000 0.000 -0.670
106 318.00 1500.02 325 772 1.520 10000.000 0.000 -0.670
107 321.00 1500.02 271 759 1.520 10000.000 0.000 -0.670
108 324.00 1500.02 313 854 1.520 10000.000 0.000 -0.670
109 327.00 1500.02 322 848 1.520 10000.000 0.000 -0.670
110 330.00 1500.02 337 1029 1.520 10000.000 0.000 -0.670
111 333.00 1500.02 299 989 1.520 10000.000 0.000 -0.670
112 336.00 1500.02 302 1098 1.520 10000.000 0.000 -0.670
113 339.00 1500.02 261 1142 1.520 10000.000 0.000 -0.670
114 342.00 1500.02 251 1088 1.520 10000.000 0.000 -0.670
115 345.00 1500.02 268 1052 1.520 10000.000 0.000 -0.670
116 348.00 1500.02 242 1180 1.520 10000.000 0.000 -0.670
117 351.00 1500.02 232 1104 1.520 10000.000 0.000 -0.670
118 354.00 1500.02 253 1114 1.520 10000.000 0.000 -0.670
119 357.00 1500.02 220 1064 1.520 10000.000 0.000 -0.670
120 360.00 1500.02 225 1101 1.520 10000.000 0.000 -0.670
121 363.00 1500.02 236 1035 1.520 10000.000 0.000 -0.670
122 366.00 1500.02 200 942 1.520 10000.000 0.000 -0.670
123 369.00 1500.02 185 931 1.520 10000.000 0.000 -0.670
124 372.00 1500.02 186 903 1.520 10000.000 0.000 -0.670
125 375.00 1500.02 204 855 1.520 10000.000 0.000 -0.670
126 378.00 1500.02 201 731 1.520 10000.000 0.000 -0.670
127 381.00 1500.02 209 637 1.520 10000.000 0.000 -0.670
128 384.00 1500.02 195 586 1.520 10000.000 0.000 -0.670
129 387.00 1500.02 223 570 1.520 10000.000 0.000 -0.670
130 390.00 1500.02 236 581 1.520 10000.000 0.000 -0.670
131 393.00 1500.02 259 500 1.520 10000.000 0.000 -0.670
132 396.00 1500.02 247 483 1.520 10000.000 0.000 -0.670
133 399.00 1500.02 281 516 1.520 10000.000 0.000 -0.670
134 402.00 1500.02 293 533 1.520 10000.000 0.000 -0.670
135 405.00 1500.02 295 502 1.520 10000.000 0.000 -0.670
136 408.00 1500.02 343 555 1.520 10000.000 0.000 -0.670
137 411.00 1500.02 341 571 1.520 10000.000 0.000 -0.670
138 414.00 1500.02 326 667 1.520 10000.000 0.000 -0.670
139 417.00 1500.02 318 692 1.520 10000.000 0.000 -0.670
140 420.00 1500.02 347 769 1.520 10000.000 0.000 -0.670
141 423.00 1500.02 330 806 1.520 10000.000 0.000 -0.670
142 426.00 1500.02 352 887 1.520 10000.000 0.000 -0.670
143 429.00 1500.02 335 1026 1.520 10000.000 0.000 -0.670
144 432.00 1500.02 305 958 1.520 10000.000 0.000 -0.670
