# BinNR microsec tot-time (s)  O-Beam AUX Ampl(V) f(Hz) phase(deg) chi(pos)
0 0.00 1500.02 94 126 1.520 10000.000 0.000 0.494
1 3.00 1500.02 193 253 1.520 10000.000 0.000 0.494
2 6.00 1500.02 217 276 1.520 10000.000 0.000 0.494
3 9.00 1500.02 259 262 1.520 10000.000 0.000 0.494
4 12.00 1500.02 258 282 1.520 10000.000 0.000 0.494
5 15.00 1500.02 257 323 1.520 10000.000 0.000 0.494
6 18.00 1500.02 261 330 1.520 10000.000 0.000 0.494
7 21.00 1500.02 281 331 1.520 10000.000 0.000 0.494
8 24.00 1500.02 298 361 1.520 10000.000 0.000 0.494
9 27.00 1500.02 313 384 1.520 10000.000 0.000 0.494
10 30.00 1500.02 308 424 1.520 10000.000 0.000 0.494
11 33.00 1500.02 313 435 1.520 10000.000 0.000 0.494
12 36.00 1500.02 313 411 1.520 10000.000 0.000 0.494
13 39.00 1500.02 314 376 1.520 10000.000 0.000 0.494
14 42.00 1500.02 340 386 1.520 10000.000 0.000 0.494
15 45.00 1500.02 332 332 1.520 10000.000 0.000 0.494
16 48.00 1500.02 296 354 1.520 10000.000 0.000 0.494
17 51.00 1500.02 290 288 1.520 10000.000 0.000 0.494
18 54.00 1500.02 271 273 1.520 10000.000 0.000 0.494
19 57.00 1500.02 276 258 1.520 10000.000 0.000 0.494
20 60.00 1500.02 278 318 1.520 10000.000 0.000 0.494
21 63.00 1500.02 237 281 1.520 10000.000 0.000 0.494
22 66.00 1500.02 227 312 1.520 10000.000 0.000 0.494
23 69.00 1500.02 229 341 1.520 10000.000 0.000 0.494
24 72.00 1500.02 210 401 1.520 10000.000 0.000 0.494
25 75.00 1500.02 193 437 1.520 10000.000 0.000 0.494
26 78.00 1500.02 190 481 1.520 10000.000 0.000 0.494
27 81.00 1500.02 178 507 1.520 10000.000 0.000 0.494
28 84.00 1500.02 182 587 1.520 10000.000 0.000 0.494
29 87.00 1500.02 190 582 1.520 10000.000 0.000 0.494
30 90.00 1500.02 179 675 1.520 10000.000 0.000 0.494
31 93.00 1500.02 170 735 1.520 10000.000 0.000 0.494
32 96.00 1500.02 213 744 1.520 10000.000 0.000 0.494
33 99.00 1500.02 178 703 1.520 10000.000 0.000 0.494
34 102.00 1500.02 230 695 1.520 10000.000 0.000 0.494
35 105.00 1500.02 232 698 1.520 10000.000 0.000 0.494
36 108.00 1500.02 218 687 1.520 10000.000 0.000 0.494
37 111.00 1500.02 254 598 1.520 10000.000 0.000 0.494
38 114.00 1500.02 284 607 1.520 10000.000 0.000 0.494
39 117.00 1500.02 253 554 1.520 10000.000 0.000 0.494
40 120.00 1500.02 282 463 1.520 10000.000 0.000 0.494
41 123.00 1500.02 284 417 1.520 10000.000 0.000 0.494
42 126.00 1500.02 303 369 1.520 10000.000 0.000 0.494
43 129.00 1500.02 292 322 1.520 10000.000 0.000 0.494
44 132.00 1500.02 323 307 1.520 10000.000 0.000 0.494
45 135.00 1500.02 281 270 1.520 10000.000 0.000 0.494
46 138.00 1500.02 300 252 1.520 10000.000 0.000 0.494
47 141.00 1500.02 296 219 1.520 10000.000 0.000 0.494
48 144.00 1500.02 315 200 1.520 10000.000 0.000 0.494
49 147.00 1500.02 280 236 1.520 10000.000 0.000 0.494
50 150.00 1500.02 305 222 1.520 10000.000 0.000 0.494
51 153.00 1500.02 273 244 1.520 10000.000 0.000 0.494
52 156.00 1500.02 245 253 1.520 10000.000 0.000 0.494
53 159.00 1500.02 269 243 1.520 10000.000 0.000 0.494
54 162.00 1500.02 266 249 1.520 10000.000 0.000 0.494
55 165.00 1500.02 204 304 1.520 10000.000 0.000 0.494
56 168.00 1500.02 241 319 1.520 10000.000 0.000 0.494
57 171.00 1500.02 203 347 1.520 10000.000 0.000 0.494
58 174.00 1500.02 211 428 1.520 10000.000 0.000 0.494
59 177.00 1500.02 178 505 1.520 10000.000 0.000 0.494
60 180.00 1500.02 183 555 1.520 10000.000 0.000 0.494
61 183.00 1500.02 196 544 1.520 10000.000 0.000 0.494
62 186.00 1500.02 184 649 1.520 10000.000 0.000 0.494
63 189.00 1500.02 194 678 1.520 10000.000 0.000 0.494
64 192.00 1500.02 168 708 1.520 10000.000 0.000 0.494
65 195.00 1500.02 189 715 1.520 10000.000 0.000 0.494
66 198.00 1500.02 226 720 1.520 10000.000 0.000 0.494
67 201.00 1500.02 224 745 1.520 10000.000 0.000 0.494
68 204.00 1500.02 235 710 1.520 10000.000 0.000 0.494
69 207.00 1500.02 225 687 1.520 10000.000 0.000 0.494
70 210.00 1500.02 245 710 1.520 10000.000 0.000 0.494
71 213.00 1500.02 250 584 1.520 10000.000 0.000 0.494
72 216.00 1500.02 277 552 1.520 10000.000 0.000 0.494
73 219.00 1500.02 287 487 1.520 10000.000 0.000 0.494
74 222.00 1500.02 337 428 1.520 10000.000 0.000 0.494
75 225.00 1500.02 322 372 1.520 10000.000 0.000 0.494
76 228.00 1500.02 342 331 1.520 10000.000 0.000 0.494
77 231.00 1500.02 323 291 1.520 10000.000 0.000 0.494
78 234.00 1500.02 296 236 1.520 10000.000 0.000 0.494
79 237.00 1500.02 296 240 1.520 10000.000 0.000 0.494
80 240.00 1500.02 316 251 1.520 10000.000 0.000 0.494
81 243.00 1500.02 294 230 1.520 10000.000 0.000 0.494
82 246.00 1500.02 345 235 1.520 10000.000 0.000 0.494
83 249.00 1500.02 295 261 1.520 10000.000 0.000 0.494
84 252.00 1500.02 267 205 1.520 10000.000 0.000 0.494
85 255.00 1500.02 267 228 1.520 10000.000 0.000 0.494
86 258.00 1500.02 259 215 1.520 10000.000 0.000 0.494
87 261.00 1500.02 256 260 1.520 10000.000 0.000 0.494
88 264.00 1500.02 254 298 1.520 10000.000 0.000 0.494
89 267.00 1500.02 234 327 1.520 10000.000 0.000 0.494
90 270.00 1500.02 209 381 1.520 10000.000 0.000 0.494
91 273.00 1500.02 229 412 1.520 10000.000 0.000 0.494
92 276.00 1500.02 205 457 1.520 10000.000 0.000 0.494
93 279.00 1500.02 203 507 1.520 10000.000 0.000 0.494
94 282.00 1500.02 192 565 1.520 10000.000 0.000 0.494
95 285.00 1500.02 204 597 1.520 10000.000 0.000 0.494
96 288.00 1500.02 232 661 1.520 10000.000 0.000 0.494
97 291.00 1500.02 216 711 1.520 10000.000 0.000 0.494
98 294.00 1500.02 250 732 1.520 10000.000 0.000 0.494
99 297.00 1500.02 229 737 1.520 10000.000 0.000 0.494
100 300.00 1500.02 227 725 1.520 10000.000 0.000 0.494
101 303.00 1500.02 234 705 1.520 10000.000 0.000 0.494
102 306.00 1500.02 244 690 1.520 10000.000 0.000 0.494
103 309.00 1500.02 244 658 1.520 10000.000 0.000 0.494
104 312.00 1500.02 231 649 1.520 10000.000 0.000 0.494
105 315.00 1500.02 248 610 1.520 10000.000 0.000 0.494
106 318.00 1500.02 243 572 1.520 10000.000 0.000 0.494
107 321.00 1500.02 203 466 1.520 10000.000 0.000 0.494
108 324.00 1500.02 190 414 1.520 10000.000 0.000 0.494
109 327.00 1500.02 235 355 1.520 10000.000 0.000 0.494
110 330.00 1500.02 200 314 1.520 10000.000 0.000 0.494
111 333.00 1500.02 203 277 1.520 10000.000 0.000 0.494
112 336.00 1500.02 208 254 1.520 10000.000 0.000 0.494
113 339.00 1500.02 254 226 1.520 10000.000 0.000 0.494
114 342.00 1500.02 238 229 1.520 10000.000 0.000 0.494
115 345.00 1500.02 250 226 1.520 10000.000 0.000 0.494
116 348.00 1500.02 267 231 1.520 10000.000 0.000 0.494
117 351.00 1500.02 285 198 1.520 10000.000 0.000 0.494
118 354.00 1500.02 273 240 1.520 10000.000 0.000 0.494
119 357.00 1500.02 307 217 1.520 10000.000 0.000 0.494
120 360.00 1500.02 286 235 1.520 10000.000 0.000 0.494
121 363.00 1500.02 314 254 1.520 10000.000 0.000 0.494
122 366.00 1500.02 313 316 1.520 10000.000 0.000 0.494
123 369.00 1500.02 295 317 1.520 10000.000 0.000 0.494
124 372.00 1500.02 324 422 1.520 10000.000 0.000 0.494
125 375.00 1500.02 295 410 1.520 10000.000 0.000 0.494
126 378.00 1500.02 322 532 1.520 10000.000 0.000 0.494
127 381.00 1500.02 243 537 1.520 10000.000 0.000 0.494
128 384.00 1500.02 310 632 1.520 10000.000 0.000 0.494
129 387.00 1500.02 306 615 1.520 10000.000 0.000 0.494
130 390.00 1500.02 251 699 1.520 10000.000 0.000 0.494
131 393.00 1500.02 245 707 1.520 10000.000 0.000 0.494
132 396.00 1500.02 227 681 1.520 10000.000 0.000 0.494
133 399.00 1500.02 237 685 1.520 10000.000 0.000 0.494
134 402.00 1500.02 244 707 1.520 10000.000 0.000 0.494
135 405.00 1500.02 211 692 1.520 10000.000 0.000 0.494
136 408.00 1500.02 174 682 1.520 10000.000 0.000 0.494
137 411.00 1500.02 177 657 1.520 10000.000 0.000 0.494
138 414.00 1500.02 199 609 1.520 10000.000 0.000 0.494
139 417.00 1500.02 192 542 1.520 10000.000 0.000 0.494
140 420.00 1500.02 204 495 1.520 10000.000 0.000 0.494
141 423.00 1500.02 186 437 1.520 10000.000 0.000 0.494
142 426.00 1500.02 185 383 1.520 10000.000 0.000 0.494
143 429.00 1500.02 214 316 1.520 10000.000 0.000 0.494
144 432.00 1500.02 222 286 1.520 10000.000 0.000 0.494
