# BinNR microsec tot-time (s)  O-Beam AUX Ampl(V) f(Hz) phase(deg) chi(pos)
0 0.00 1200.01 164 417 0.940 10000.000 0.000 -0.736
1 3.00 1200.01 323 761 0.940 10000.000 0.000 -0.736
2 6.00 1200.01 329 779 0.940 10000.000 0.000 -0.736
3 9.00 1200.01 306 841 0.940 10000.000 0.000 -0.736
4 12.00 1200.01 334 673 0.940 10000.000 0.000 -0.736
5 15.00 1200.01 364 630 0.940 10000.000 0.000 -0.736
6 18.00 1200.01 351 546 0.940 10000.000 0.000 -0.736
7 21.00 1200.01 330 420 0.940 10000.000 0.000 -0.736
8 24.00 1200.01 332 394 0.940 10000.000 0.000 -0.736
9 27.00 1200.01 279 329 0.940 10000.000 0.000 -0.736
10 30.00 1200.01 283 413 0.940 10000.000 0.000 -0.736
11 33.00 1200.01 262 489 0.940 10000.000 0.000 -0.736
12 36.00 1200.01 253 557 0.940 10000.000 0.000 -0.736
13 39.00 1200.01 200 637 0.940 10000.000 0.000 -0.736
14 42.00 1200.01 193 773 0.940 10000.000 0.000 -0.736
15 45.00 1200.01 203 850 0.940 10000.000 0.000 -0.736
16 48.00 1200.01 199 988 0.940 10000.000 0.000 -0.736
17 51.00 1200.01 221 1001 0.940 10000.000 0.000 -0.736
18 54.00 1200.01 211 994 0.940 10000.000 0.000 -0.736
19 57.00 1200.01 240 960 0.940 10000.000 0.000 -0.736
20 60.00 1200.01 241 950 0.940 10000.000 0.000 -0.736
21 63.00 1200.01 250 918 0.940 10000.000 0.000 -0.736
22 66.00 1200.01 307 941 0.940 10000.000 0.000 -0.736
23 69.00 1200.01 319 887 0.940 10000.000 0.000 -0.736
24 72.00 1200.01 326 1051 0.940 10000.000 0.000 -0.736
25 75.00 1200.01 312 914 0.940 10000.000 0.000 -0.736
26 78.00 1200.01 325 1027 0.940 10000.000 0.000 -0.736
27 81.00 1200.01 325 1004 0.940 10000.000 0.000 -0.736
28 84.00 1200.01 361 917 0.940 10000.000 0.000 -0.736
29 87.00 1200.01 306 914 0.940 10000.000 0.000 -0.736
30 90.00 1200.01 316 804 0.940 10000.000 0.000 -0.736
31 93.00 1200.01 350 694 0.940 10000.000 0.000 -0.736
32 96.00 1200.01 341 605 0.940 10000.000 0.000 -0.736
33 99.00 1200.01 328 475 0.940 10000.000 0.000 -0.736
34 102.00 1200.01 344 362 0.940 10000.000 0.000 -0.736
35 105.00 1200.01 358 328 0.940 10000.000 0.000 -0.736
36 108.00 1200.01 369 246 0.940 10000.000 0.000 -0.736
37 111.00 1200.01 340 233 0.940 10000.000 0.000 -0.736
38 114.00 1200.01 330 235 0.940 10000.000 0.000 -0.736
39 117.00 1200.01 326 212 0.940 10000.000 0.000 -0.736
40 120.00 1200.01 325 219 0.940 10000.000 0.000 -0.736
41 123.00 1200.01 327 270 0.940 10000.000 0.000 -0.736
42 126.00 1200.01 323 320 0.940 10000.000 0.000 -0.736
43 129.00 1200.01 309 366 0.940 10000.000 0.000 -0.736
44 132.00 1200.01 329 499 0.940 10000.000 0.000 -0.736
45 135.00 1200.01 304 562 0.940 10000.000 0.000 -0.736
46 138.00 1200.01 306 738 0.940 10000.000 0.000 -0.736
47 141.00 1200.01 287 850 0.940 10000.000 0.000 -0.736
48 144.00 1200.01 289 953 0.940 10000.000 0.000 -0.736
49 147.00 1200.01 249 975 0.940 10000.000 0.000 -0.736
50 150.00 1200.01 304 1022 0.940 10000.000 0.000 -0.736
51 153.00 1200.01 270 960 0.940 10000.000 0.000 -0.736
52 156.00 1200.01 284 990 0.940 10000.000 0.000 -0.736
53 159.00 1200.01 283 1013 0.940 10000.000 0.000 -0.736
54 162.00 1200.01 322 939 0.940 10000.000 0.000 -0.736
55 165.00 1200.01 276 918 0.940 10000.000 0.000 -0.736
56 168.00 1200.01 326 858 0.940 10000.000 0.000 -0.736
57 171.00 1200.01 331 898 0.940 10000.000 0.000 -0.736
58 174.00 1200.01 332 978 0.940 10000.000 0.000 -0.736
59 177.00 1200.01 312 994 0.940 10000.000 0.000 -0.736
60 180.00 1200.01 335 947 0.940 10000.000 0.000 -0.736
61 183.00 1200.01 325 1017 0.940 10000.000 0.000 -0.736
62 186.00 1200.01 310 1001 0.940 10000.000 0.000 -0.736
63 189.00 1200.01 352 916 0.940 10000.000 0.000 -0.736
64 192.00 1200.01 357 756 0.940 10000.000 0.000 -0.736
65 195.00 1200.01 349 644 0.940 10000.000 0.000 -0.736
66 198.00 1200.01 324 481 0.940 10000.000 0.000 -0.736
67 201.00 1200.01 354 410 0.940 10000.000 0.000 -0.736
68 204.00 1200.01 355 285 0.940 10000.000 0.000 -0.736
69 207.00 1200.01 361 292 0.940 10000.000 0.000 -0.736
70 210.00 1200.01 349 270 0.940 10000.000 0.000 -0.736
71 213.00 1200.01 315 316 0.940 10000.000 0.000 -0.736
72 216.00 1200.01 346 398 0.940 10000.000 0.000 -0.736
73 219.00 1200.01 325 374 0.940 10000.000 0.000 -0.736
74 222.00 1200.01 363 477 0.940 10000.000 0.000 -0.736
75 225.00 1200.01 310 599 0.940 10000.000 0.000 -0.736
76 228.00 1200.01 347 634 0.940 10000.000 0.000 -0.736
77 231.00 1200.01 290 763 0.940 10000.000 0.000 -0.736
78 234.00 1200.01 351 831 0.940 10000.000 0.000 -0.736
79 237.00 1200.01 311 878 0.940 10000.000 0.000 -0.736
80 240.00 1200.01 315 816 0.940 10000.000 0.000 -0.736
81 243.00 1200.01 280 839 0.940 10000.000 0.000 -0.736
82 246.00 1200.01 304 835 0.940 10000.000 0.000 -0.736
83 249.00 1200.01 302 890 0.940 10000.000 0.000 -0.736
84 252.00 1200.01 308 910 0.940 10000.000 0.000 -0.736
85 255.00 1200.01 317 915 0.940 10000.000 0.000 -0.736
86 258.00 1200.01 304 917 0.940 10000.000 0.000 -0.736
87 261.00 1200.01 322 986 0.940 10000.000 0.000 -0.736
88 264.00 1200.01 363 992 0.940 10000.000 0.000 -0.736
89 267.00 1200.01 308 948 0.940 10000.000 0.000 -0.736
90 270.00 1200.01 330 965 0.940 10000.000 0.000 -0.736
91 273.00 1200.01 328 885 0.940 10000.000 0.000 -0.736
92 276.00 1200.01 311 919 0.940 10000.000 0.000 -0.736
93 279.00 1200.01 297 846 0.940 10000.000 0.000 -0.736
94 282.00 1200.01 288 915 0.940 10000.000 0.000 -0.736
95 285.00 1200.01 262 886 0.940 10000.000 0.000 -0.736
96 288.00 1200.01 247 841 0.940 10000.000 0.000 -0.736
97 291.00 1200.01 226 750 0.940 10000.000 0.000 -0.736
98 294.00 1200.01 245 747 0.940 10000.000 0.000 -0.736
99 297.00 1200.01 230 764 0.940 10000.000 0.000 -0.736
100 300.00 1200.01 240 686 0.940 10000.000 0.000 -0.736
101 303.00 1200.01 248 649 0.940 10000.000 0.000 -0.736
102 306.00 1200.01 282 716 0.940 10000.000 0.000 -0.736
103 309.00 1200.01 265 638 0.940 10000.000 0.000 -0.736
104 312.00 1200.01 300 591 0.940 10000.000 0.000 -0.736
105 315.00 1200.01 320 645 0.940 10000.000 0.000 -0.736
106 318.00 1200.01 287 637 0.940 10000.000 0.000 -0.736
107 321.00 1200.01 302 611 0.940 10000.000 0.000 -0.736
108 324.00 1200.01 312 659 0.940 10000.000 0.000 -0.736
109 327.00 1200.01 320 707 0.940 10000.000 0.000 -0.736
110 330.00 1200.01 311 733 0.940 10000.000 0.000 -0.736
111 333.00 1200.01 304 756 0.940 10000.000 0.000 -0.736
112 336.00 1200.01 346 789 0.940 10000.000 0.000 -0.736
113 339.00 1200.01 304 780 0.940 10000.000 0.000 -0.736
114 342.00 1200.01 281 772 0.940 10000.000 0.000 -0.736
115 345.00 1200.01 280 810 0.940 10000.000 0.000 -0.736
116 348.00 1200.01 356 900 0.940 10000.000 0.000 -0.736
117 351.00 1200.01 358 878 0.940 10000.000 0.000 -0.736
118 354.00 1200.01 315 877 0.940 10000.000 0.000 -0.736
119 357.00 1200.01 320 895 0.940 10000.000 0.000 -0.736
120 360.00 1200.01 295 964 0.940 10000.000 0.000 -0.736
121 363.00 1200.01 301 982 0.940 10000.000 0.000 -0.736
122 366.00 1200.01 267 929 0.940 10000.000 0.000 -0.736
123 369.00 1200.01 235 941 0.940 10000.000 0.000 -0.736
124 372.00 1200.01 228 918 0.940 10000.000 0.000 -0.736
125 375.00 1200.01 204 919 0.940 10000.000 0.000 -0.736
126 378.00 1200.01 205 895 0.940 10000.000 0.000 -0.736
127 381.00 1200.01 157 847 0.940 10000.000 0.000 -0.736
128 384.00 1200.01 175 842 0.940 10000.000 0.000 -0.736
129 387.00 1200.01 146 847 0.940 10000.000 0.000 -0.736
130 390.00 1200.01 185 831 0.940 10000.000 0.000 -0.736
131 393.00 1200.01 157 723 0.940 10000.000 0.000 -0.736
132 396.00 1200.01 179 741 0.940 10000.000 0.000 -0.736
133 399.00 1200.01 195 727 0.940 10000.000 0.000 -0.736
134 402.00 1200.01 246 716 0.940 10000.000 0.000 -0.736
135 405.00 1200.01 241 663 0.940 10000.000 0.000 -0.736
136 408.00 1200.01 307 651 0.940 10000.000 0.000 -0.736
137 411.00 1200.01 269 678 0.940 10000.000 0.000 -0.736
138 414.00 1200.01 311 675 0.940 10000.000 0.000 -0.736
139 417.00 1200.01 306 744 0.940 10000.000 0.000 -0.736
140 420.00 1200.01 361 715 0.940 10000.000 0.000 -0.736
141 423.00 1200.01 352 828 0.940 10000.000 0.000 -0.736
