# BinNR microsec tot-time (s)  O-Beam AUX Ampl(V) f(Hz) phase(deg) chi(pos)
0 0.00 1200.01 125 458 1.740 10000.000 0.000 -0.681
1 3.00 1200.01 255 887 1.740 10000.000 0.000 -0.681
2 6.00 1200.01 277 909 1.740 10000.000 0.000 -0.681
3 9.00 1200.01 257 826 1.740 10000.000 0.000 -0.681
4 12.00 1200.01 299 794 1.740 10000.000 0.000 -0.681
5 15.00 1200.01 280 629 1.740 10000.000 0.000 -0.681
6 18.00 1200.01 329 524 1.740 10000.000 0.000 -0.681
7 21.00 1200.01 301 384 1.740 10000.000 0.000 -0.681
8 24.00 1200.01 333 320 1.740 10000.000 0.000 -0.681
9 27.00 1200.01 279 307 1.740 10000.000 0.000 -0.681
10 30.00 1200.01 280 355 1.740 10000.000 0.000 -0.681
11 33.00 1200.01 222 415 1.740 10000.000 0.000 -0.681
12 36.00 1200.01 227 557 1.740 10000.000 0.000 -0.681
13 39.00 1200.01 205 717 1.740 10000.000 0.000 -0.681
14 42.00 1200.01 179 824 1.740 10000.000 0.000 -0.681
15 45.00 1200.01 181 948 1.740 10000.000 0.000 -0.681
16 48.00 1200.01 177 1033 1.740 10000.000 0.000 -0.681
17 51.00 1200.01 174 1008 1.740 10000.000 0.000 -0.681
18 54.00 1200.01 219 987 1.740 10000.000 0.000 -0.681
19 57.00 1200.01 231 887 1.740 10000.000 0.000 -0.681
20 60.00 1200.01 223 812 1.740 10000.000 0.000 -0.681
21 63.00 1200.01 257 742 1.740 10000.000 0.000 -0.681
22 66.00 1200.01 299 743 1.740 10000.000 0.000 -0.681
23 69.00 1200.01 288 775 1.740 10000.000 0.000 -0.681
24 72.00 1200.01 328 812 1.740 10000.000 0.000 -0.681
25 75.00 1200.01 322 847 1.740 10000.000 0.000 -0.681
26 78.00 1200.01 347 947 1.740 10000.000 0.000 -0.681
27 81.00 1200.01 329 918 1.740 10000.000 0.000 -0.681
28 84.00 1200.01 364 991 1.740 10000.000 0.000 -0.681
29 87.00 1200.01 351 938 1.740 10000.000 0.000 -0.681
30 90.00 1200.01 357 923 1.740 10000.000 0.000 -0.681
31 93.00 1200.01 323 758 1.740 10000.000 0.000 -0.681
32 96.00 1200.01 322 615 1.740 10000.000 0.000 -0.681
33 99.00 1200.01 367 405 1.740 10000.000 0.000 -0.681
34 102.00 1200.01 333 298 1.740 10000.000 0.000 -0.681
35 105.00 1200.01 350 271 1.740 10000.000 0.000 -0.681
36 108.00 1200.01 328 172 1.740 10000.000 0.000 -0.681
37 111.00 1200.01 336 172 1.740 10000.000 0.000 -0.681
38 114.00 1200.01 346 123 1.740 10000.000 0.000 -0.681
39 117.00 1200.01 330 133 1.740 10000.000 0.000 -0.681
40 120.00 1200.01 341 177 1.740 10000.000 0.000 -0.681
41 123.00 1200.01 346 201 1.740 10000.000 0.000 -0.681
42 126.00 1200.01 338 257 1.740 10000.000 0.000 -0.681
43 129.00 1200.01 316 344 1.740 10000.000 0.000 -0.681
44 132.00 1200.01 311 438 1.740 10000.000 0.000 -0.681
45 135.00 1200.01 279 591 1.740 10000.000 0.000 -0.681
46 138.00 1200.01 295 769 1.740 10000.000 0.000 -0.681
47 141.00 1200.01 296 859 1.740 10000.000 0.000 -0.681
48 144.00 1200.01 246 961 1.740 10000.000 0.000 -0.681
49 147.00 1200.01 220 1030 1.740 10000.000 0.000 -0.681
50 150.00 1200.01 244 975 1.740 10000.000 0.000 -0.681
51 153.00 1200.01 240 919 1.740 10000.000 0.000 -0.681
52 156.00 1200.01 241 884 1.740 10000.000 0.000 -0.681
53 159.00 1200.01 266 812 1.740 10000.000 0.000 -0.681
54 162.00 1200.01 214 847 1.740 10000.000 0.000 -0.681
55 165.00 1200.01 297 783 1.740 10000.000 0.000 -0.681
56 168.00 1200.01 285 769 1.740 10000.000 0.000 -0.681
57 171.00 1200.01 260 786 1.740 10000.000 0.000 -0.681
58 174.00 1200.01 328 864 1.740 10000.000 0.000 -0.681
59 177.00 1200.01 350 951 1.740 10000.000 0.000 -0.681
60 180.00 1200.01 351 965 1.740 10000.000 0.000 -0.681
61 183.00 1200.01 339 948 1.740 10000.000 0.000 -0.681
62 186.00 1200.01 360 992 1.740 10000.000 0.000 -0.681
63 189.00 1200.01 332 923 1.740 10000.000 0.000 -0.681
64 192.00 1200.01 366 799 1.740 10000.000 0.000 -0.681
65 195.00 1200.01 371 637 1.740 10000.000 0.000 -0.681
66 198.00 1200.01 338 551 1.740 10000.000 0.000 -0.681
67 201.00 1200.01 359 403 1.740 10000.000 0.000 -0.681
68 204.00 1200.01 345 289 1.740 10000.000 0.000 -0.681
69 207.00 1200.01 314 230 1.740 10000.000 0.000 -0.681
70 210.00 1200.01 375 234 1.740 10000.000 0.000 -0.681
71 213.00 1200.01 377 213 1.740 10000.000 0.000 -0.681
72 216.00 1200.01 337 303 1.740 10000.000 0.000 -0.681
73 219.00 1200.01 327 355 1.740 10000.000 0.000 -0.681
74 222.00 1200.01 328 414 1.740 10000.000 0.000 -0.681
75 225.00 1200.01 335 503 1.740 10000.000 0.000 -0.681
76 228.00 1200.01 343 610 1.740 10000.000 0.000 -0.681
77 231.00 1200.01 338 675 1.740 10000.000 0.000 -0.681
78 234.00 1200.01 319 844 1.740 10000.000 0.000 -0.681
79 237.00 1200.01 275 858 1.740 10000.000 0.000 -0.681
80 240.00 1200.01 302 905 1.740 10000.000 0.000 -0.681
81 243.00 1200.01 270 959 1.740 10000.000 0.000 -0.681
82 246.00 1200.01 299 932 1.740 10000.000 0.000 -0.681
83 249.00 1200.01 278 1007 1.740 10000.000 0.000 -0.681
84 252.00 1200.01 310 1008 1.740 10000.000 0.000 -0.681
85 255.00 1200.01 278 1018 1.740 10000.000 0.000 -0.681
86 258.00 1200.01 325 1012 1.740 10000.000 0.000 -0.681
87 261.00 1200.01 316 1008 1.740 10000.000 0.000 -0.681
88 264.00 1200.01 328 994 1.740 10000.000 0.000 -0.681
89 267.00 1200.01 343 935 1.740 10000.000 0.000 -0.681
90 270.00 1200.01 334 1038 1.740 10000.000 0.000 -0.681
91 273.00 1200.01 331 998 1.740 10000.000 0.000 -0.681
92 276.00 1200.01 332 1026 1.740 10000.000 0.000 -0.681
93 279.00 1200.01 319 955 1.740 10000.000 0.000 -0.681
94 282.00 1200.01 308 961 1.740 10000.000 0.000 -0.681
95 285.00 1200.01 296 945 1.740 10000.000 0.000 -0.681
96 288.00 1200.01 297 923 1.740 10000.000 0.000 -0.681
97 291.00 1200.01 226 839 1.740 10000.000 0.000 -0.681
98 294.00 1200.01 228 824 1.740 10000.000 0.000 -0.681
99 297.00 1200.01 185 716 1.740 10000.000 0.000 -0.681
100 300.00 1200.01 233 691 1.740 10000.000 0.000 -0.681
101 303.00 1200.01 238 616 1.740 10000.000 0.000 -0.681
102 306.00 1200.01 279 574 1.740 10000.000 0.000 -0.681
103 309.00 1200.01 271 540 1.740 10000.000 0.000 -0.681
104 312.00 1200.01 313 475 1.740 10000.000 0.000 -0.681
105 315.00 1200.01 315 495 1.740 10000.000 0.000 -0.681
106 318.00 1200.01 363 532 1.740 10000.000 0.000 -0.681
107 321.00 1200.01 278 499 1.740 10000.000 0.000 -0.681
108 324.00 1200.01 322 551 1.740 10000.000 0.000 -0.681
109 327.00 1200.01 285 598 1.740 10000.000 0.000 -0.681
110 330.00 1200.01 280 659 1.740 10000.000 0.000 -0.681
111 333.00 1200.01 264 693 1.740 10000.000 0.000 -0.681
112 336.00 1200.01 240 800 1.740 10000.000 0.000 -0.681
113 339.00 1200.01 257 849 1.740 10000.000 0.000 -0.681
114 342.00 1200.01 281 902 1.740 10000.000 0.000 -0.681
115 345.00 1200.01 288 993 1.740 10000.000 0.000 -0.681
116 348.00 1200.01 303 964 1.740 10000.000 0.000 -0.681
117 351.00 1200.01 329 942 1.740 10000.000 0.000 -0.681
118 354.00 1200.01 302 978 1.740 10000.000 0.000 -0.681
119 357.00 1200.01 311 968 1.740 10000.000 0.000 -0.681
120 360.00 1200.01 318 979 1.740 10000.000 0.000 -0.681
121 363.00 1200.01 289 981 1.740 10000.000 0.000 -0.681
122 366.00 1200.01 254 1015 1.740 10000.000 0.000 -0.681
123 369.00 1200.01 244 1057 1.740 10000.000 0.000 -0.681
124 372.00 1200.01 174 964 1.740 10000.000 0.000 -0.681
125 375.00 1200.01 189 988 1.740 10000.000 0.000 -0.681
126 378.00 1200.01 149 986 1.740 10000.000 0.000 -0.681
127 381.00 1200.01 126 964 1.740 10000.000 0.000 -0.681
128 384.00 1200.01 121 1009 1.740 10000.000 0.000 -0.681
129 387.00 1200.01 140 874 1.740 10000.000 0.000 -0.681
130 390.00 1200.01 135 854 1.740 10000.000 0.000 -0.681
131 393.00 1200.01 152 758 1.740 10000.000 0.000 -0.681
132 396.00 1200.01 164 771 1.740 10000.000 0.000 -0.681
133 399.00 1200.01 196 682 1.740 10000.000 0.000 -0.681
134 402.00 1200.01 237 604 1.740 10000.000 0.000 -0.681
135 405.00 1200.01 260 582 1.740 10000.000 0.000 -0.681
136 408.00 1200.01 281 562 1.740 10000.000 0.000 -0.681
137 411.00 1200.01 299 589 1.740 10000.000 0.000 -0.681
138 414.00 1200.01 325 621 1.740 10000.000 0.000 -0.681
139 417.00 1200.01 313 702 1.740 10000.000 0.000 -0.681
140 420.00 1200.01 326 745 1.740 10000.000 0.000 -0.681
141 423.00 1200.01 320 736 1.740 10000.000 0.000 -0.681
