# BinNR microsec tot-time (s)  O-Beam AUX Ampl(V) f(Hz) phase(deg) chi(pos)
0 0.00 1200.01 97 451 2.600 10000.000 0.000 -0.571
1 3.00 1200.01 218 1007 2.600 10000.000 0.000 -0.571
2 6.00 1200.01 208 926 2.600 10000.000 0.000 -0.571
3 9.00 1200.01 239 837 2.600 10000.000 0.000 -0.571
4 12.00 1200.01 225 720 2.600 10000.000 0.000 -0.571
5 15.00 1200.01 271 618 2.600 10000.000 0.000 -0.571
6 18.00 1200.01 288 396 2.600 10000.000 0.000 -0.571
7 21.00 1200.01 308 346 2.600 10000.000 0.000 -0.571
8 24.00 1200.01 317 244 2.600 10000.000 0.000 -0.571
9 27.00 1200.01 275 268 2.600 10000.000 0.000 -0.571
10 30.00 1200.01 247 261 2.600 10000.000 0.000 -0.571
11 33.00 1200.01 228 356 2.600 10000.000 0.000 -0.571
12 36.00 1200.01 170 492 2.600 10000.000 0.000 -0.571
13 39.00 1200.01 180 664 2.600 10000.000 0.000 -0.571
14 42.00 1200.01 164 847 2.600 10000.000 0.000 -0.571
15 45.00 1200.01 143 989 2.600 10000.000 0.000 -0.571
16 48.00 1200.01 119 1039 2.600 10000.000 0.000 -0.571
17 51.00 1200.01 127 992 2.600 10000.000 0.000 -0.571
18 54.00 1200.01 161 820 2.600 10000.000 0.000 -0.571
19 57.00 1200.01 163 736 2.600 10000.000 0.000 -0.571
20 60.00 1200.01 190 628 2.600 10000.000 0.000 -0.571
21 63.00 1200.01 220 547 2.600 10000.000 0.000 -0.571
22 66.00 1200.01 231 594 2.600 10000.000 0.000 -0.571
23 69.00 1200.01 263 590 2.600 10000.000 0.000 -0.571
24 72.00 1200.01 286 642 2.600 10000.000 0.000 -0.571
25 75.00 1200.01 302 754 2.600 10000.000 0.000 -0.571
26 78.00 1200.01 352 823 2.600 10000.000 0.000 -0.571
27 81.00 1200.01 346 983 2.600 10000.000 0.000 -0.571
28 84.00 1200.01 357 981 2.600 10000.000 0.000 -0.571
29 87.00 1200.01 343 982 2.600 10000.000 0.000 -0.571
30 90.00 1200.01 339 897 2.600 10000.000 0.000 -0.571
31 93.00 1200.01 337 737 2.600 10000.000 0.000 -0.571
32 96.00 1200.01 328 545 2.600 10000.000 0.000 -0.571
33 99.00 1200.01 292 366 2.600 10000.000 0.000 -0.571
34 102.00 1200.01 345 241 2.600 10000.000 0.000 -0.571
35 105.00 1200.01 313 173 2.600 10000.000 0.000 -0.571
36 108.00 1200.01 327 127 2.600 10000.000 0.000 -0.571
37 111.00 1200.01 314 133 2.600 10000.000 0.000 -0.571
38 114.00 1200.01 319 94 2.600 10000.000 0.000 -0.571
39 117.00 1200.01 324 112 2.600 10000.000 0.000 -0.571
40 120.00 1200.01 339 133 2.600 10000.000 0.000 -0.571
41 123.00 1200.01 337 119 2.600 10000.000 0.000 -0.571
42 126.00 1200.01 312 187 2.600 10000.000 0.000 -0.571
43 129.00 1200.01 295 217 2.600 10000.000 0.000 -0.571
44 132.00 1200.01 292 417 2.600 10000.000 0.000 -0.571
45 135.00 1200.01 263 545 2.600 10000.000 0.000 -0.571
46 138.00 1200.01 251 751 2.600 10000.000 0.000 -0.571
47 141.00 1200.01 231 891 2.600 10000.000 0.000 -0.571
48 144.00 1200.01 217 955 2.600 10000.000 0.000 -0.571
49 147.00 1200.01 234 985 2.600 10000.000 0.000 -0.571
50 150.00 1200.01 207 944 2.600 10000.000 0.000 -0.571
51 153.00 1200.01 203 926 2.600 10000.000 0.000 -0.571
52 156.00 1200.01 184 769 2.600 10000.000 0.000 -0.571
53 159.00 1200.01 221 695 2.600 10000.000 0.000 -0.571
54 162.00 1200.01 238 654 2.600 10000.000 0.000 -0.571
55 165.00 1200.01 245 591 2.600 10000.000 0.000 -0.571
56 168.00 1200.01 270 622 2.600 10000.000 0.000 -0.571
57 171.00 1200.01 293 636 2.600 10000.000 0.000 -0.571
58 174.00 1200.01 315 719 2.600 10000.000 0.000 -0.571
59 177.00 1200.01 310 858 2.600 10000.000 0.000 -0.571
60 180.00 1200.01 309 868 2.600 10000.000 0.000 -0.571
61 183.00 1200.01 354 925 2.600 10000.000 0.000 -0.571
62 186.00 1200.01 346 1007 2.600 10000.000 0.000 -0.571
63 189.00 1200.01 319 911 2.600 10000.000 0.000 -0.571
64 192.00 1200.01 311 747 2.600 10000.000 0.000 -0.571
65 195.00 1200.01 317 617 2.600 10000.000 0.000 -0.571
66 198.00 1200.01 330 452 2.600 10000.000 0.000 -0.571
67 201.00 1200.01 331 272 2.600 10000.000 0.000 -0.571
68 204.00 1200.01 312 208 2.600 10000.000 0.000 -0.571
69 207.00 1200.01 335 121 2.600 10000.000 0.000 -0.571
70 210.00 1200.01 366 110 2.600 10000.000 0.000 -0.571
71 213.00 1200.01 368 138 2.600 10000.000 0.000 -0.571
72 216.00 1200.01 304 144 2.600 10000.000 0.000 -0.571
73 219.00 1200.01 333 194 2.600 10000.000 0.000 -0.571
74 222.00 1200.01 322 308 2.600 10000.000 0.000 -0.571
75 225.00 1200.01 319 364 2.600 10000.000 0.000 -0.571
76 228.00 1200.01 323 458 2.600 10000.000 0.000 -0.571
77 231.00 1200.01 301 610 2.600 10000.000 0.000 -0.571
78 234.00 1200.01 295 728 2.600 10000.000 0.000 -0.571
79 237.00 1200.01 221 877 2.600 10000.000 0.000 -0.571
80 240.00 1200.01 248 934 2.600 10000.000 0.000 -0.571
81 243.00 1200.01 235 933 2.600 10000.000 0.000 -0.571
82 246.00 1200.01 268 1017 2.600 10000.000 0.000 -0.571
83 249.00 1200.01 255 985 2.600 10000.000 0.000 -0.571
84 252.00 1200.01 270 1050 2.600 10000.000 0.000 -0.571
85 255.00 1200.01 266 955 2.600 10000.000 0.000 -0.571
86 258.00 1200.01 270 953 2.600 10000.000 0.000 -0.571
87 261.00 1200.01 291 944 2.600 10000.000 0.000 -0.571
88 264.00 1200.01 341 961 2.600 10000.000 0.000 -0.571
89 267.00 1200.01 292 1000 2.600 10000.000 0.000 -0.571
90 270.00 1200.01 313 959 2.600 10000.000 0.000 -0.571
91 273.00 1200.01 315 1061 2.600 10000.000 0.000 -0.571
92 276.00 1200.01 336 1049 2.600 10000.000 0.000 -0.571
93 279.00 1200.01 287 989 2.600 10000.000 0.000 -0.571
94 282.00 1200.01 290 1033 2.600 10000.000 0.000 -0.571
95 285.00 1200.01 240 935 2.600 10000.000 0.000 -0.571
96 288.00 1200.01 219 964 2.600 10000.000 0.000 -0.571
97 291.00 1200.01 205 846 2.600 10000.000 0.000 -0.571
98 294.00 1200.01 204 729 2.600 10000.000 0.000 -0.571
99 297.00 1200.01 175 740 2.600 10000.000 0.000 -0.571
100 300.00 1200.01 190 620 2.600 10000.000 0.000 -0.571
101 303.00 1200.01 211 537 2.600 10000.000 0.000 -0.571
102 306.00 1200.01 235 416 2.600 10000.000 0.000 -0.571
103 309.00 1200.01 262 360 2.600 10000.000 0.000 -0.571
104 312.00 1200.01 294 311 2.600 10000.000 0.000 -0.571
105 315.00 1200.01 296 331 2.600 10000.000 0.000 -0.571
106 318.00 1200.01 304 353 2.600 10000.000 0.000 -0.571
107 321.00 1200.01 271 416 2.600 10000.000 0.000 -0.571
108 324.00 1200.01 270 424 2.600 10000.000 0.000 -0.571
109 327.00 1200.01 243 465 2.600 10000.000 0.000 -0.571
110 330.00 1200.01 224 570 2.600 10000.000 0.000 -0.571
111 333.00 1200.01 215 630 2.600 10000.000 0.000 -0.571
112 336.00 1200.01 202 762 2.600 10000.000 0.000 -0.571
113 339.00 1200.01 233 811 2.600 10000.000 0.000 -0.571
114 342.00 1200.01 236 869 2.600 10000.000 0.000 -0.571
115 345.00 1200.01 270 892 2.600 10000.000 0.000 -0.571
116 348.00 1200.01 245 972 2.600 10000.000 0.000 -0.571
117 351.00 1200.01 249 981 2.600 10000.000 0.000 -0.571
118 354.00 1200.01 301 1072 2.600 10000.000 0.000 -0.571
119 357.00 1200.01 259 955 2.600 10000.000 0.000 -0.571
120 360.00 1200.01 282 965 2.600 10000.000 0.000 -0.571
121 363.00 1200.01 274 959 2.600 10000.000 0.000 -0.571
122 366.00 1200.01 242 970 2.600 10000.000 0.000 -0.571
123 369.00 1200.01 214 961 2.600 10000.000 0.000 -0.571
124 372.00 1200.01 172 990 2.600 10000.000 0.000 -0.571
125 375.00 1200.01 115 1010 2.600 10000.000 0.000 -0.571
126 378.00 1200.01 132 1028 2.600 10000.000 0.000 -0.571
127 381.00 1200.01 104 907 2.600 10000.000 0.000 -0.571
128 384.00 1200.01 113 997 2.600 10000.000 0.000 -0.571
129 387.00 1200.01 84 921 2.600 10000.000 0.000 -0.571
130 390.00 1200.01 110 863 2.600 10000.000 0.000 -0.571
131 393.00 1200.01 125 771 2.600 10000.000 0.000 -0.571
132 396.00 1200.01 148 654 2.600 10000.000 0.000 -0.571
133 399.00 1200.01 176 573 2.600 10000.000 0.000 -0.571
134 402.00 1200.01 228 477 2.600 10000.000 0.000 -0.571
135 405.00 1200.01 261 488 2.600 10000.000 0.000 -0.571
136 408.00 1200.01 247 458 2.600 10000.000 0.000 -0.571
137 411.00 1200.01 272 451 2.600 10000.000 0.000 -0.571
138 414.00 1200.01 344 518 2.600 10000.000 0.000 -0.571
139 417.00 1200.01 277 548 2.600 10000.000 0.000 -0.571
140 420.00 1200.01 280 649 2.600 10000.000 0.000 -0.571
141 423.00 1200.01 288 753 2.600 10000.000 0.000 -0.571
