# BinNR microsec tot-time (s)  O-Beam AUX Ampl(V) f(Hz) phase(deg) chi(pos)
0 0.00 1200.02 171 396 0.600 10000.000 0.000 -0.670
1 3.00 1200.02 348 718 0.600 10000.000 0.000 -0.670
2 6.00 1200.02 335 749 0.600 10000.000 0.000 -0.670
3 9.00 1200.02 339 642 0.600 10000.000 0.000 -0.670
4 12.00 1200.02 332 613 0.600 10000.000 0.000 -0.670
5 15.00 1200.02 378 506 0.600 10000.000 0.000 -0.670
6 18.00 1200.02 347 448 0.600 10000.000 0.000 -0.670
7 21.00 1200.02 328 357 0.600 10000.000 0.000 -0.670
8 24.00 1200.02 327 346 0.600 10000.000 0.000 -0.670
9 27.00 1200.02 292 331 0.600 10000.000 0.000 -0.670
10 30.00 1200.02 300 342 0.600 10000.000 0.000 -0.670
11 33.00 1200.02 206 384 0.600 10000.000 0.000 -0.670
12 36.00 1200.02 215 494 0.600 10000.000 0.000 -0.670
13 39.00 1200.02 202 540 0.600 10000.000 0.000 -0.670
14 42.00 1200.02 209 728 0.600 10000.000 0.000 -0.670
15 45.00 1200.02 153 826 0.600 10000.000 0.000 -0.670
16 48.00 1200.02 186 952 0.600 10000.000 0.000 -0.670
17 51.00 1200.02 196 975 0.600 10000.000 0.000 -0.670
18 54.00 1200.02 211 992 0.600 10000.000 0.000 -0.670
19 57.00 1200.02 207 999 0.600 10000.000 0.000 -0.670
20 60.00 1200.02 245 1070 0.600 10000.000 0.000 -0.670
21 63.00 1200.02 248 982 0.600 10000.000 0.000 -0.670
22 66.00 1200.02 308 1001 0.600 10000.000 0.000 -0.670
23 69.00 1200.02 270 973 0.600 10000.000 0.000 -0.670
24 72.00 1200.02 303 1023 0.600 10000.000 0.000 -0.670
25 75.00 1200.02 275 914 0.600 10000.000 0.000 -0.670
26 78.00 1200.02 304 1017 0.600 10000.000 0.000 -0.670
27 81.00 1200.02 289 967 0.600 10000.000 0.000 -0.670
28 84.00 1200.02 353 956 0.600 10000.000 0.000 -0.670
29 87.00 1200.02 312 864 0.600 10000.000 0.000 -0.670
30 90.00 1200.02 312 756 0.600 10000.000 0.000 -0.670
31 93.00 1200.02 335 586 0.600 10000.000 0.000 -0.670
32 96.00 1200.02 350 531 0.600 10000.000 0.000 -0.670
33 99.00 1200.02 349 387 0.600 10000.000 0.000 -0.670
34 102.00 1200.02 314 312 0.600 10000.000 0.000 -0.670
35 105.00 1200.02 305 270 0.600 10000.000 0.000 -0.670
36 108.00 1200.02 325 236 0.600 10000.000 0.000 -0.670
37 111.00 1200.02 335 165 0.600 10000.000 0.000 -0.670
38 114.00 1200.02 364 190 0.600 10000.000 0.000 -0.670
39 117.00 1200.02 314 206 0.600 10000.000 0.000 -0.670
40 120.00 1200.02 342 192 0.600 10000.000 0.000 -0.670
41 123.00 1200.02 302 233 0.600 10000.000 0.000 -0.670
42 126.00 1200.02 304 263 0.600 10000.000 0.000 -0.670
43 129.00 1200.02 302 310 0.600 10000.000 0.000 -0.670
44 132.00 1200.02 279 437 0.600 10000.000 0.000 -0.670
45 135.00 1200.02 285 489 0.600 10000.000 0.000 -0.670
46 138.00 1200.02 292 617 0.600 10000.000 0.000 -0.670
47 141.00 1200.02 312 754 0.600 10000.000 0.000 -0.670
48 144.00 1200.02 263 811 0.600 10000.000 0.000 -0.670
49 147.00 1200.02 276 864 0.600 10000.000 0.000 -0.670
50 150.00 1200.02 275 1004 0.600 10000.000 0.000 -0.670
51 153.00 1200.02 285 939 0.600 10000.000 0.000 -0.670
52 156.00 1200.02 277 978 0.600 10000.000 0.000 -0.670
53 159.00 1200.02 285 1076 0.600 10000.000 0.000 -0.670
54 162.00 1200.02 289 1018 0.600 10000.000 0.000 -0.670
55 165.00 1200.02 268 929 0.600 10000.000 0.000 -0.670
56 168.00 1200.02 304 948 0.600 10000.000 0.000 -0.670
57 171.00 1200.02 284 973 0.600 10000.000 0.000 -0.670
58 174.00 1200.02 316 991 0.600 10000.000 0.000 -0.670
59 177.00 1200.02 296 1024 0.600 10000.000 0.000 -0.670
60 180.00 1200.02 313 944 0.600 10000.000 0.000 -0.670
61 183.00 1200.02 333 903 0.600 10000.000 0.000 -0.670
62 186.00 1200.02 281 965 0.600 10000.000 0.000 -0.670
63 189.00 1200.02 322 747 0.600 10000.000 0.000 -0.670
64 192.00 1200.02 309 683 0.600 10000.000 0.000 -0.670
65 195.00 1200.02 316 611 0.600 10000.000 0.000 -0.670
66 198.00 1200.02 327 479 0.600 10000.000 0.000 -0.670
67 201.00 1200.02 314 360 0.600 10000.000 0.000 -0.670
68 204.00 1200.02 328 320 0.600 10000.000 0.000 -0.670
69 207.00 1200.02 308 271 0.600 10000.000 0.000 -0.670
70 210.00 1200.02 351 242 0.600 10000.000 0.000 -0.670
71 213.00 1200.02 298 255 0.600 10000.000 0.000 -0.670
72 216.00 1200.02 324 326 0.600 10000.000 0.000 -0.670
73 219.00 1200.02 297 395 0.600 10000.000 0.000 -0.670
74 222.00 1200.02 306 463 0.600 10000.000 0.000 -0.670
75 225.00 1200.02 319 557 0.600 10000.000 0.000 -0.670
76 228.00 1200.02 338 578 0.600 10000.000 0.000 -0.670
77 231.00 1200.02 296 687 0.600 10000.000 0.000 -0.670
78 234.00 1200.02 322 747 0.600 10000.000 0.000 -0.670
79 237.00 1200.02 267 801 0.600 10000.000 0.000 -0.670
80 240.00 1200.02 276 746 0.600 10000.000 0.000 -0.670
81 243.00 1200.02 272 801 0.600 10000.000 0.000 -0.670
82 246.00 1200.02 291 827 0.600 10000.000 0.000 -0.670
83 249.00 1200.02 301 770 0.600 10000.000 0.000 -0.670
84 252.00 1200.02 292 810 0.600 10000.000 0.000 -0.670
85 255.00 1200.02 314 838 0.600 10000.000 0.000 -0.670
86 258.00 1200.02 283 866 0.600 10000.000 0.000 -0.670
87 261.00 1200.02 274 830 0.600 10000.000 0.000 -0.670
88 264.00 1200.02 314 838 0.600 10000.000 0.000 -0.670
89 267.00 1200.02 331 772 0.600 10000.000 0.000 -0.670
90 270.00 1200.02 308 828 0.600 10000.000 0.000 -0.670
91 273.00 1200.02 294 841 0.600 10000.000 0.000 -0.670
92 276.00 1200.02 312 800 0.600 10000.000 0.000 -0.670
93 279.00 1200.02 276 807 0.600 10000.000 0.000 -0.670
94 282.00 1200.02 269 800 0.600 10000.000 0.000 -0.670
95 285.00 1200.02 236 773 0.600 10000.000 0.000 -0.670
96 288.00 1200.02 220 745 0.600 10000.000 0.000 -0.670
97 291.00 1200.02 237 713 0.600 10000.000 0.000 -0.670
98 294.00 1200.02 251 745 0.600 10000.000 0.000 -0.670
99 297.00 1200.02 218 653 0.600 10000.000 0.000 -0.670
100 300.00 1200.02 203 638 0.600 10000.000 0.000 -0.670
101 303.00 1200.02 219 663 0.600 10000.000 0.000 -0.670
102 306.00 1200.02 272 614 0.600 10000.000 0.000 -0.670
103 309.00 1200.02 258 577 0.600 10000.000 0.000 -0.670
104 312.00 1200.02 304 549 0.600 10000.000 0.000 -0.670
105 315.00 1200.02 300 573 0.600 10000.000 0.000 -0.670
106 318.00 1200.02 349 598 0.600 10000.000 0.000 -0.670
107 321.00 1200.02 352 645 0.600 10000.000 0.000 -0.670
108 324.00 1200.02 331 594 0.600 10000.000 0.000 -0.670
109 327.00 1200.02 309 647 0.600 10000.000 0.000 -0.670
110 330.00 1200.02 295 635 0.600 10000.000 0.000 -0.670
111 333.00 1200.02 328 689 0.600 10000.000 0.000 -0.670
112 336.00 1200.02 329 621 0.600 10000.000 0.000 -0.670
113 339.00 1200.02 339 706 0.600 10000.000 0.000 -0.670
114 342.00 1200.02 343 762 0.600 10000.000 0.000 -0.670
115 345.00 1200.02 323 717 0.600 10000.000 0.000 -0.670
116 348.00 1200.02 325 767 0.600 10000.000 0.000 -0.670
117 351.00 1200.02 318 748 0.600 10000.000 0.000 -0.670
118 354.00 1200.02 338 833 0.600 10000.000 0.000 -0.670
119 357.00 1200.02 322 781 0.600 10000.000 0.000 -0.670
120 360.00 1200.02 298 814 0.600 10000.000 0.000 -0.670
121 363.00 1200.02 278 819 0.600 10000.000 0.000 -0.670
122 366.00 1200.02 252 845 0.600 10000.000 0.000 -0.670
123 369.00 1200.02 234 857 0.600 10000.000 0.000 -0.670
124 372.00 1200.02 206 789 0.600 10000.000 0.000 -0.670
125 375.00 1200.02 169 757 0.600 10000.000 0.000 -0.670
126 378.00 1200.02 172 799 0.600 10000.000 0.000 -0.670
127 381.00 1200.02 154 782 0.600 10000.000 0.000 -0.670
128 384.00 1200.02 146 825 0.600 10000.000 0.000 -0.670
129 387.00 1200.02 149 753 0.600 10000.000 0.000 -0.670
130 390.00 1200.02 157 692 0.600 10000.000 0.000 -0.670
131 393.00 1200.02 158 691 0.600 10000.000 0.000 -0.670
132 396.00 1200.02 188 715 0.600 10000.000 0.000 -0.670
133 399.00 1200.02 206 645 0.600 10000.000 0.000 -0.670
134 402.00 1200.02 238 622 0.600 10000.000 0.000 -0.670
135 405.00 1200.02 254 597 0.600 10000.000 0.000 -0.670
136 408.00 1200.02 250 608 0.600 10000.000 0.000 -0.670
137 411.00 1200.02 276 643 0.600 10000.000 0.000 -0.670
138 414.00 1200.02 301 651 0.600 10000.000 0.000 -0.670
139 417.00 1200.02 347 670 0.600 10000.000 0.000 -0.670
140 420.00 1200.02 339 679 0.600 10000.000 0.000 -0.670
141 423.00 1200.02 350 693 0.600 10000.000 0.000 -0.670
