# BinNR microsec tot-time (s)  O-Beam AUX Ampl(V) f(Hz) phase(deg) chi(pos)
0 0.00 1200.00 79 523 3.050 10000.000 0.000 -0.560
1 3.00 1200.00 171 958 3.050 10000.000 0.000 -0.560
2 6.00 1200.00 164 1016 3.050 10000.000 0.000 -0.560
3 9.00 1200.00 179 895 3.050 10000.000 0.000 -0.560
4 12.00 1200.00 206 812 3.050 10000.000 0.000 -0.560
5 15.00 1200.00 249 611 3.050 10000.000 0.000 -0.560
6 18.00 1200.00 269 525 3.050 10000.000 0.000 -0.560
7 21.00 1200.00 302 352 3.050 10000.000 0.000 -0.560
8 24.00 1200.00 321 284 3.050 10000.000 0.000 -0.560
9 27.00 1200.00 283 269 3.050 10000.000 0.000 -0.560
10 30.00 1200.00 266 311 3.050 10000.000 0.000 -0.560
11 33.00 1200.00 237 366 3.050 10000.000 0.000 -0.560
12 36.00 1200.00 214 563 3.050 10000.000 0.000 -0.560
13 39.00 1200.00 211 697 3.050 10000.000 0.000 -0.560
14 42.00 1200.00 137 880 3.050 10000.000 0.000 -0.560
15 45.00 1200.00 136 1020 3.050 10000.000 0.000 -0.560
16 48.00 1200.00 128 937 3.050 10000.000 0.000 -0.560
17 51.00 1200.00 133 872 3.050 10000.000 0.000 -0.560
18 54.00 1200.00 144 715 3.050 10000.000 0.000 -0.560
19 57.00 1200.00 146 571 3.050 10000.000 0.000 -0.560
20 60.00 1200.00 199 438 3.050 10000.000 0.000 -0.560
21 63.00 1200.00 202 395 3.050 10000.000 0.000 -0.560
22 66.00 1200.00 232 372 3.050 10000.000 0.000 -0.560
23 69.00 1200.00 277 426 3.050 10000.000 0.000 -0.560
24 72.00 1200.00 300 512 3.050 10000.000 0.000 -0.560
25 75.00 1200.00 326 555 3.050 10000.000 0.000 -0.560
26 78.00 1200.00 333 706 3.050 10000.000 0.000 -0.560
27 81.00 1200.00 339 857 3.050 10000.000 0.000 -0.560
28 84.00 1200.00 315 969 3.050 10000.000 0.000 -0.560
29 87.00 1200.00 342 980 3.050 10000.000 0.000 -0.560
30 90.00 1200.00 288 971 3.050 10000.000 0.000 -0.560
31 93.00 1200.00 297 800 3.050 10000.000 0.000 -0.560
32 96.00 1200.00 287 591 3.050 10000.000 0.000 -0.560
33 99.00 1200.00 294 367 3.050 10000.000 0.000 -0.560
34 102.00 1200.00 309 278 3.050 10000.000 0.000 -0.560
35 105.00 1200.00 285 156 3.050 10000.000 0.000 -0.560
36 108.00 1200.00 308 111 3.050 10000.000 0.000 -0.560
37 111.00 1200.00 302 120 3.050 10000.000 0.000 -0.560
38 114.00 1200.00 320 116 3.050 10000.000 0.000 -0.560
39 117.00 1200.00 318 99 3.050 10000.000 0.000 -0.560
40 120.00 1200.00 342 131 3.050 10000.000 0.000 -0.560
41 123.00 1200.00 346 116 3.050 10000.000 0.000 -0.560
42 126.00 1200.00 327 190 3.050 10000.000 0.000 -0.560
43 129.00 1200.00 278 294 3.050 10000.000 0.000 -0.560
44 132.00 1200.00 309 404 3.050 10000.000 0.000 -0.560
45 135.00 1200.00 285 600 3.050 10000.000 0.000 -0.560
46 138.00 1200.00 272 806 3.050 10000.000 0.000 -0.560
47 141.00 1200.00 228 867 3.050 10000.000 0.000 -0.560
48 144.00 1200.00 221 1032 3.050 10000.000 0.000 -0.560
49 147.00 1200.00 209 947 3.050 10000.000 0.000 -0.560
50 150.00 1200.00 207 862 3.050 10000.000 0.000 -0.560
51 153.00 1200.00 188 712 3.050 10000.000 0.000 -0.560
52 156.00 1200.00 202 592 3.050 10000.000 0.000 -0.560
53 159.00 1200.00 241 455 3.050 10000.000 0.000 -0.560
54 162.00 1200.00 221 406 3.050 10000.000 0.000 -0.560
55 165.00 1200.00 244 400 3.050 10000.000 0.000 -0.560
56 168.00 1200.00 266 377 3.050 10000.000 0.000 -0.560
57 171.00 1200.00 275 445 3.050 10000.000 0.000 -0.560
58 174.00 1200.00 317 583 3.050 10000.000 0.000 -0.560
59 177.00 1200.00 315 669 3.050 10000.000 0.000 -0.560
60 180.00 1200.00 341 829 3.050 10000.000 0.000 -0.560
61 183.00 1200.00 349 939 3.050 10000.000 0.000 -0.560
62 186.00 1200.00 316 1026 3.050 10000.000 0.000 -0.560
63 189.00 1200.00 306 936 3.050 10000.000 0.000 -0.560
64 192.00 1200.00 345 838 3.050 10000.000 0.000 -0.560
65 195.00 1200.00 305 641 3.050 10000.000 0.000 -0.560
66 198.00 1200.00 303 460 3.050 10000.000 0.000 -0.560
67 201.00 1200.00 293 301 3.050 10000.000 0.000 -0.560
68 204.00 1200.00 280 209 3.050 10000.000 0.000 -0.560
69 207.00 1200.00 330 168 3.050 10000.000 0.000 -0.560
70 210.00 1200.00 302 144 3.050 10000.000 0.000 -0.560
71 213.00 1200.00 324 138 3.050 10000.000 0.000 -0.560
72 216.00 1200.00 332 149 3.050 10000.000 0.000 -0.560
73 219.00 1200.00 368 194 3.050 10000.000 0.000 -0.560
74 222.00 1200.00 353 284 3.050 10000.000 0.000 -0.560
75 225.00 1200.00 315 399 3.050 10000.000 0.000 -0.560
76 228.00 1200.00 348 550 3.050 10000.000 0.000 -0.560
77 231.00 1200.00 288 648 3.050 10000.000 0.000 -0.560
78 234.00 1200.00 286 799 3.050 10000.000 0.000 -0.560
79 237.00 1200.00 262 861 3.050 10000.000 0.000 -0.560
80 240.00 1200.00 267 966 3.050 10000.000 0.000 -0.560
81 243.00 1200.00 266 939 3.050 10000.000 0.000 -0.560
82 246.00 1200.00 258 1075 3.050 10000.000 0.000 -0.560
83 249.00 1200.00 253 1017 3.050 10000.000 0.000 -0.560
84 252.00 1200.00 280 964 3.050 10000.000 0.000 -0.560
85 255.00 1200.00 327 912 3.050 10000.000 0.000 -0.560
86 258.00 1200.00 282 842 3.050 10000.000 0.000 -0.560
87 261.00 1200.00 359 871 3.050 10000.000 0.000 -0.560
88 264.00 1200.00 314 854 3.050 10000.000 0.000 -0.560
89 267.00 1200.00 312 800 3.050 10000.000 0.000 -0.560
90 270.00 1200.00 324 873 3.050 10000.000 0.000 -0.560
91 273.00 1200.00 333 895 3.050 10000.000 0.000 -0.560
92 276.00 1200.00 349 898 3.050 10000.000 0.000 -0.560
93 279.00 1200.00 323 936 3.050 10000.000 0.000 -0.560
94 282.00 1200.00 306 979 3.050 10000.000 0.000 -0.560
95 285.00 1200.00 258 1040 3.050 10000.000 0.000 -0.560
96 288.00 1200.00 287 1009 3.050 10000.000 0.000 -0.560
97 291.00 1200.00 215 874 3.050 10000.000 0.000 -0.560
98 294.00 1200.00 219 790 3.050 10000.000 0.000 -0.560
99 297.00 1200.00 216 681 3.050 10000.000 0.000 -0.560
100 300.00 1200.00 205 606 3.050 10000.000 0.000 -0.560
101 303.00 1200.00 231 513 3.050 10000.000 0.000 -0.560
102 306.00 1200.00 261 433 3.050 10000.000 0.000 -0.560
103 309.00 1200.00 266 366 3.050 10000.000 0.000 -0.560
104 312.00 1200.00 286 354 3.050 10000.000 0.000 -0.560
105 315.00 1200.00 310 353 3.050 10000.000 0.000 -0.560
106 318.00 1200.00 284 395 3.050 10000.000 0.000 -0.560
107 321.00 1200.00 292 369 3.050 10000.000 0.000 -0.560
108 324.00 1200.00 256 440 3.050 10000.000 0.000 -0.560
109 327.00 1200.00 234 486 3.050 10000.000 0.000 -0.560
110 330.00 1200.00 205 601 3.050 10000.000 0.000 -0.560
111 333.00 1200.00 170 710 3.050 10000.000 0.000 -0.560
112 336.00 1200.00 164 831 3.050 10000.000 0.000 -0.560
113 339.00 1200.00 160 925 3.050 10000.000 0.000 -0.560
114 342.00 1200.00 167 999 3.050 10000.000 0.000 -0.560
115 345.00 1200.00 183 994 3.050 10000.000 0.000 -0.560
116 348.00 1200.00 190 1014 3.050 10000.000 0.000 -0.560
117 351.00 1200.00 241 911 3.050 10000.000 0.000 -0.560
118 354.00 1200.00 274 932 3.050 10000.000 0.000 -0.560
119 357.00 1200.00 267 887 3.050 10000.000 0.000 -0.560
120 360.00 1200.00 260 891 3.050 10000.000 0.000 -0.560
121 363.00 1200.00 260 831 3.050 10000.000 0.000 -0.560
122 366.00 1200.00 247 837 3.050 10000.000 0.000 -0.560
123 369.00 1200.00 220 862 3.050 10000.000 0.000 -0.560
124 372.00 1200.00 167 878 3.050 10000.000 0.000 -0.560
125 375.00 1200.00 160 945 3.050 10000.000 0.000 -0.560
126 378.00 1200.00 117 968 3.050 10000.000 0.000 -0.560
127 381.00 1200.00 113 1042 3.050 10000.000 0.000 -0.560
128 384.00 1200.00 106 996 3.050 10000.000 0.000 -0.560
129 387.00 1200.00 99 917 3.050 10000.000 0.000 -0.560
130 390.00 1200.00 108 913 3.050 10000.000 0.000 -0.560
131 393.00 1200.00 123 851 3.050 10000.000 0.000 -0.560
132 396.00 1200.00 139 740 3.050 10000.000 0.000 -0.560
133 399.00 1200.00 174 675 3.050 10000.000 0.000 -0.560
134 402.00 1200.00 211 517 3.050 10000.000 0.000 -0.560
135 405.00 1200.00 236 493 3.050 10000.000 0.000 -0.560
136 408.00 1200.00 305 442 3.050 10000.000 0.000 -0.560
137 411.00 1200.00 276 481 3.050 10000.000 0.000 -0.560
138 414.00 1200.00 290 574 3.050 10000.000 0.000 -0.560
139 417.00 1200.00 273 656 3.050 10000.000 0.000 -0.560
140 420.00 1200.00 245 697 3.050 10000.000 0.000 -0.560
141 423.00 1200.00 256 792 3.050 10000.000 0.000 -0.560
