# BinNR microsec tot-time (s)  O-Beam AUX Ampl_1(V) f_1(Hz) phase_1(deg) Ampl_2(V) f_2(Hz) phase_2(deg) chi(pos)
0 0.00 1500.02 141 373 0.740 10000.000 0.000 0.610 15000.000 0.000 0.835
1 3.00 1500.02 231 706 0.740 10000.000 0.000 0.610 15000.000 0.000 0.835
2 6.00 1500.02 236 690 0.740 10000.000 0.000 0.610 15000.000 0.000 0.835
3 9.00 1500.02 236 703 0.740 10000.000 0.000 0.610 15000.000 0.000 0.835
4 12.00 1500.02 221 677 0.740 10000.000 0.000 0.610 15000.000 0.000 0.835
5 15.00 1500.02 200 707 0.740 10000.000 0.000 0.610 15000.000 0.000 0.835
6 18.00 1500.02 241 686 0.740 10000.000 0.000 0.610 15000.000 0.000 0.835
7 21.00 1500.02 221 655 0.740 10000.000 0.000 0.610 15000.000 0.000 0.835
8 24.00 1500.02 229 664 0.740 10000.000 0.000 0.610 15000.000 0.000 0.835
9 27.00 1500.02 193 694 0.740 10000.000 0.000 0.610 15000.000 0.000 0.835
10 30.00 1500.02 187 633 0.740 10000.000 0.000 0.610 15000.000 0.000 0.835
11 33.00 1500.02 224 651 0.740 10000.000 0.000 0.610 15000.000 0.000 0.835
12 36.00 1500.02 238 649 0.740 10000.000 0.000 0.610 15000.000 0.000 0.835
13 39.00 1500.02 225 665 0.740 10000.000 0.000 0.610 15000.000 0.000 0.835
14 42.00 1500.02 222 667 0.740 10000.000 0.000 0.610 15000.000 0.000 0.835
15 45.00 1500.02 214 670 0.740 10000.000 0.000 0.610 15000.000 0.000 0.835
16 48.00 1500.02 197 639 0.740 10000.000 0.000 0.610 15000.000 0.000 0.835
17 51.00 1500.02 211 670 0.740 10000.000 0.000 0.610 15000.000 0.000 0.835
18 54.00 1500.02 225 659 0.740 10000.000 0.000 0.610 15000.000 0.000 0.835
19 57.00 1500.02 211 685 0.740 10000.000 0.000 0.610 15000.000 0.000 0.835
20 60.00 1500.02 236 745 0.740 10000.000 0.000 0.610 15000.000 0.000 0.835
21 63.00 1500.02 219 679 0.740 10000.000 0.000 0.610 15000.000 0.000 0.835
22 66.00 1500.02 236 673 0.740 10000.000 0.000 0.610 15000.000 0.000 0.835
23 69.00 1500.02 241 705 0.740 10000.000 0.000 0.610 15000.000 0.000 0.835
24 72.00 1500.02 236 678 0.740 10000.000 0.000 0.610 15000.000 0.000 0.835
25 75.00 1500.02 233 563 0.740 10000.000 0.000 0.610 15000.000 0.000 0.835
26 78.00 1500.02 268 661 0.740 10000.000 0.000 0.610 15000.000 0.000 0.835
27 81.00 1500.02 238 593 0.740 10000.000 0.000 0.610 15000.000 0.000 0.835
28 84.00 1500.02 229 595 0.740 10000.000 0.000 0.610 15000.000 0.000 0.835
29 87.00 1500.02 228 630 0.740 10000.000 0.000 0.610 15000.000 0.000 0.835
30 90.00 1500.02 246 608 0.740 10000.000 0.000 0.610 15000.000 0.000 0.835
31 93.00 1500.02 265 604 0.740 10000.000 0.000 0.610 15000.000 0.000 0.835
32 96.00 1500.02 245 586 0.740 10000.000 0.000 0.610 15000.000 0.000 0.835
33 99.00 1500.02 216 591 0.740 10000.000 0.000 0.610 15000.000 0.000 0.835
34 102.00 1500.02 233 682 0.740 10000.000 0.000 0.610 15000.000 0.000 0.835
35 105.00 1500.02 178 653 0.740 10000.000 0.000 0.610 15000.000 0.000 0.835
36 108.00 1500.02 225 662 0.740 10000.000 0.000 0.610 15000.000 0.000 0.835
37 111.00 1500.02 195 615 0.740 10000.000 0.000 0.610 15000.000 0.000 0.835
38 114.00 1500.02 225 690 0.740 10000.000 0.000 0.610 15000.000 0.000 0.835
39 117.00 1500.02 215 663 0.740 10000.000 0.000 0.610 15000.000 0.000 0.835
40 120.00 1500.02 204 666 0.740 10000.000 0.000 0.610 15000.000 0.000 0.835
41 123.00 1500.02 212 655 0.740 10000.000 0.000 0.610 15000.000 0.000 0.835
42 126.00 1500.02 237 649 0.740 10000.000 0.000 0.610 15000.000 0.000 0.835
43 129.00 1500.02 223 709 0.740 10000.000 0.000 0.610 15000.000 0.000 0.835
44 132.00 1500.02 206 707 0.740 10000.000 0.000 0.610 15000.000 0.000 0.835
45 135.00 1500.02 202 714 0.740 10000.000 0.000 0.610 15000.000 0.000 0.835
46 138.00 1500.02 223 737 0.740 10000.000 0.000 0.610 15000.000 0.000 0.835
47 141.00 1500.02 218 616 0.740 10000.000 0.000 0.610 15000.000 0.000 0.835
48 144.00 1500.02 218 653 0.740 10000.000 0.000 0.610 15000.000 0.000 0.835
49 147.00 1500.02 228 646 0.740 10000.000 0.000 0.610 15000.000 0.000 0.835
50 150.00 1500.02 225 692 0.740 10000.000 0.000 0.610 15000.000 0.000 0.835
51 153.00 1500.02 199 682 0.740 10000.000 0.000 0.610 15000.000 0.000 0.835
52 156.00 1500.02 232 695 0.740 10000.000 0.000 0.610 15000.000 0.000 0.835
53 159.00 1500.02 213 675 0.740 10000.000 0.000 0.610 15000.000 0.000 0.835
54 162.00 1500.02 252 726 0.740 10000.000 0.000 0.610 15000.000 0.000 0.835
55 165.00 1500.02 212 725 0.740 10000.000 0.000 0.610 15000.000 0.000 0.835
56 168.00 1500.02 232 672 0.740 10000.000 0.000 0.610 15000.000 0.000 0.835
57 171.00 1500.02 245 689 0.740 10000.000 0.000 0.610 15000.000 0.000 0.835
58 174.00 1500.02 218 715 0.740 10000.000 0.000 0.610 15000.000 0.000 0.835
59 177.00 1500.02 218 696 0.740 10000.000 0.000 0.610 15000.000 0.000 0.835
60 180.00 1500.02 222 656 0.740 10000.000 0.000 0.610 15000.000 0.000 0.835
61 183.00 1500.02 217 650 0.740 10000.000 0.000 0.610 15000.000 0.000 0.835
62 186.00 1500.02 246 667 0.740 10000.000 0.000 0.610 15000.000 0.000 0.835
63 189.00 1500.02 229 675 0.740 10000.000 0.000 0.610 15000.000 0.000 0.835
64 192.00 1500.02 248 689 0.740 10000.000 0.000 0.610 15000.000 0.000 0.835
65 195.00 1500.02 272 646 0.740 10000.000 0.000 0.610 15000.000 0.000 0.835
66 198.00 1500.02 250 569 0.740 10000.000 0.000 0.610 15000.000 0.000 0.835
67 201.00 1500.02 254 638 0.740 10000.000 0.000 0.610 15000.000 0.000 0.835
68 204.00 1500.02 223 617 0.740 10000.000 0.000 0.610 15000.000 0.000 0.835
69 207.00 1500.02 228 638 0.740 10000.000 0.000 0.610 15000.000 0.000 0.835
70 210.00 1500.02 227 578 0.740 10000.000 0.000 0.610 15000.000 0.000 0.835
71 213.00 1500.02 237 586 0.740 10000.000 0.000 0.610 15000.000 0.000 0.835
72 216.00 1500.02 242 587 0.740 10000.000 0.000 0.610 15000.000 0.000 0.835
73 219.00 1500.02 226 641 0.740 10000.000 0.000 0.610 15000.000 0.000 0.835
74 222.00 1500.02 212 629 0.740 10000.000 0.000 0.610 15000.000 0.000 0.835
75 225.00 1500.02 210 680 0.740 10000.000 0.000 0.610 15000.000 0.000 0.835
76 228.00 1500.02 239 642 0.740 10000.000 0.000 0.610 15000.000 0.000 0.835
77 231.00 1500.02 209 688 0.740 10000.000 0.000 0.610 15000.000 0.000 0.835
78 234.00 1500.02 223 673 0.740 10000.000 0.000 0.610 15000.000 0.000 0.835
79 237.00 1500.02 205 692 0.740 10000.000 0.000 0.610 15000.000 0.000 0.835
80 240.00 1500.02 231 688 0.740 10000.000 0.000 0.610 15000.000 0.000 0.835
81 243.00 1500.02 197 663 0.740 10000.000 0.000 0.610 15000.000 0.000 0.835
82 246.00 1500.02 208 690 0.740 10000.000 0.000 0.610 15000.000 0.000 0.835
83 249.00 1500.02 235 655 0.740 10000.000 0.000 0.610 15000.000 0.000 0.835
84 252.00 1500.02 201 677 0.740 10000.000 0.000 0.610 15000.000 0.000 0.835
85 255.00 1500.02 212 683 0.740 10000.000 0.000 0.610 15000.000 0.000 0.835
86 258.00 1500.02 219 653 0.740 10000.000 0.000 0.610 15000.000 0.000 0.835
87 261.00 1500.02 213 677 0.740 10000.000 0.000 0.610 15000.000 0.000 0.835
88 264.00 1500.02 244 710 0.740 10000.000 0.000 0.610 15000.000 0.000 0.835
89 267.00 1500.02 237 678 0.740 10000.000 0.000 0.610 15000.000 0.000 0.835
90 270.00 1500.02 245 634 0.740 10000.000 0.000 0.610 15000.000 0.000 0.835
91 273.00 1500.02 257 655 0.740 10000.000 0.000 0.610 15000.000 0.000 0.835
92 276.00 1500.02 206 635 0.740 10000.000 0.000 0.610 15000.000 0.000 0.835
93 279.00 1500.02 218 601 0.740 10000.000 0.000 0.610 15000.000 0.000 0.835
94 282.00 1500.02 247 568 0.740 10000.000 0.000 0.610 15000.000 0.000 0.835
95 285.00 1500.02 253 585 0.740 10000.000 0.000 0.610 15000.000 0.000 0.835
96 288.00 1500.02 278 541 0.740 10000.000 0.000 0.610 15000.000 0.000 0.835
97 291.00 1500.02 212 584 0.740 10000.000 0.000 0.610 15000.000 0.000 0.835
98 294.00 1500.02 224 606 0.740 10000.000 0.000 0.610 15000.000 0.000 0.835
99 297.00 1500.02 237 630 0.740 10000.000 0.000 0.610 15000.000 0.000 0.835
100 300.00 1500.02 238 635 0.740 10000.000 0.000 0.610 15000.000 0.000 0.835
101 303.00 1500.02 228 595 0.740 10000.000 0.000 0.610 15000.000 0.000 0.835
102 306.00 1500.02 234 664 0.740 10000.000 0.000 0.610 15000.000 0.000 0.835
103 309.00 1500.02 235 641 0.740 10000.000 0.000 0.610 15000.000 0.000 0.835
104 312.00 1500.02 249 676 0.740 10000.000 0.000 0.610 15000.000 0.000 0.835
105 315.00 1500.02 222 699 0.740 10000.000 0.000 0.610 15000.000 0.000 0.835
106 318.00 1500.02 237 698 0.740 10000.000 0.000 0.610 15000.000 0.000 0.835
107 321.00 1500.02 248 687 0.740 10000.000 0.000 0.610 15000.000 0.000 0.835
108 324.00 1500.02 262 693 0.740 10000.000 0.000 0.610 15000.000 0.000 0.835
109 327.00 1500.02 228 708 0.740 10000.000 0.000 0.610 15000.000 0.000 0.835
110 330.00 1500.02 227 665 0.740 10000.000 0.000 0.610 15000.000 0.000 0.835
111 333.00 1500.02 222 683 0.740 10000.000 0.000 0.610 15000.000 0.000 0.835
112 336.00 1500.02 231 656 0.740 10000.000 0.000 0.610 15000.000 0.000 0.835
113 339.00 1500.02 214 662 0.740 10000.000 0.000 0.610 15000.000 0.000 0.835
114 342.00 1500.02 256 726 0.740 10000.000 0.000 0.610 15000.000 0.000 0.835
115 345.00 1500.02 233 669 0.740 10000.000 0.000 0.610 15000.000 0.000 0.835
116 348.00 1500.02 210 685 0.740 10000.000 0.000 0.610 15000.000 0.000 0.835
117 351.00 1500.02 246 673 0.740 10000.000 0.000 0.610 15000.000 0.000 0.835
118 354.00 1500.02 196 682 0.740 10000.000 0.000 0.610 15000.000 0.000 0.835
119 357.00 1500.02 199 666 0.740 10000.000 0.000 0.610 15000.000 0.000 0.835
120 360.00 1500.02 202 671 0.740 10000.000 0.000 0.610 15000.000 0.000 0.835
121 363.00 1500.02 191 663 0.740 10000.000 0.000 0.610 15000.000 0.000 0.835
122 366.00 1500.02 207 697 0.740 10000.000 0.000 0.610 15000.000 0.000 0.835
123 369.00 1500.02 212 671 0.740 10000.000 0.000 0.610 15000.000 0.000 0.835
124 372.00 1500.02 214 676 0.740 10000.000 0.000 0.610 15000.000 0.000 0.835
125 375.00 1500.02 208 698 0.740 10000.000 0.000 0.610 15000.000 0.000 0.835
126 378.00 1500.02 232 722 0.740 10000.000 0.000 0.610 15000.000 0.000 0.835
127 381.00 1500.02 204 692 0.740 10000.000 0.000 0.610 15000.000 0.000 0.835
128 384.00 1500.02 239 631 0.740 10000.000 0.000 0.610 15000.000 0.000 0.835
129 387.00 1500.02 262 659 0.740 10000.000 0.000 0.610 15000.000 0.000 0.835
130 390.00 1500.02 261 692 0.740 10000.000 0.000 0.610 15000.000 0.000 0.835
131 393.00 1500.02 234 614 0.740 10000.000 0.000 0.610 15000.000 0.000 0.835
132 396.00 1500.02 212 622 0.740 10000.000 0.000 0.610 15000.000 0.000 0.835
133 399.00 1500.02 226 610 0.740 10000.000 0.000 0.610 15000.000 0.000 0.835
134 402.00 1500.02 212 611 0.740 10000.000 0.000 0.610 15000.000 0.000 0.835
135 405.00 1500.02 241 614 0.740 10000.000 0.000 0.610 15000.000 0.000 0.835
136 408.00 1500.02 250 591 0.740 10000.000 0.000 0.610 15000.000 0.000 0.835
137 411.00 1500.02 231 565 0.740 10000.000 0.000 0.610 15000.000 0.000 0.835
138 414.00 1500.02 249 636 0.740 10000.000 0.000 0.610 15000.000 0.000 0.835
139 417.00 1500.02 202 612 0.740 10000.000 0.000 0.610 15000.000 0.000 0.835
140 420.00 1500.02 252 634 0.740 10000.000 0.000 0.610 15000.000 0.000 0.835
141 423.00 1500.02 259 662 0.740 10000.000 0.000 0.610 15000.000 0.000 0.835
142 426.00 1500.02 244 661 0.740 10000.000 0.000 0.610 15000.000 0.000 0.835
143 429.00 1500.02 235 688 0.740 10000.000 0.000 0.610 15000.000 0.000 0.835
144 432.00 1500.02 215 706 0.740 10000.000 0.000 0.610 15000.000 0.000 0.835
