# BinNR microsec tot-time (s)  O-Beam AUX Ampl_1(V) f_1(Hz) phase_1(deg) Ampl_2(V) f_2(Hz) phase_2(deg) chi(pos)
0 0.00 1500.00 96 151 0.740 10000.000 0.000 0.610 15000.000 0.000 1.505
1 3.00 1500.00 158 305 0.740 10000.000 0.000 0.610 15000.000 0.000 1.505
2 6.00 1500.00 163 330 0.740 10000.000 0.000 0.610 15000.000 0.000 1.505
3 9.00 1500.00 172 327 0.740 10000.000 0.000 0.610 15000.000 0.000 1.505
4 12.00 1500.00 176 363 0.740 10000.000 0.000 0.610 15000.000 0.000 1.505
5 15.00 1500.00 148 322 0.740 10000.000 0.000 0.610 15000.000 0.000 1.505
6 18.00 1500.00 190 344 0.740 10000.000 0.000 0.610 15000.000 0.000 1.505
7 21.00 1500.00 194 386 0.740 10000.000 0.000 0.610 15000.000 0.000 1.505
8 24.00 1500.00 196 411 0.740 10000.000 0.000 0.610 15000.000 0.000 1.505
9 27.00 1500.00 174 424 0.740 10000.000 0.000 0.610 15000.000 0.000 1.505
10 30.00 1500.00 209 448 0.740 10000.000 0.000 0.610 15000.000 0.000 1.505
11 33.00 1500.00 192 406 0.740 10000.000 0.000 0.610 15000.000 0.000 1.505
12 36.00 1500.00 183 436 0.740 10000.000 0.000 0.610 15000.000 0.000 1.505
13 39.00 1500.00 222 395 0.740 10000.000 0.000 0.610 15000.000 0.000 1.505
14 42.00 1500.00 194 359 0.740 10000.000 0.000 0.610 15000.000 0.000 1.505
15 45.00 1500.00 179 400 0.740 10000.000 0.000 0.610 15000.000 0.000 1.505
16 48.00 1500.00 194 364 0.740 10000.000 0.000 0.610 15000.000 0.000 1.505
17 51.00 1500.00 223 379 0.740 10000.000 0.000 0.610 15000.000 0.000 1.505
18 54.00 1500.00 212 342 0.740 10000.000 0.000 0.610 15000.000 0.000 1.505
19 57.00 1500.00 174 319 0.740 10000.000 0.000 0.610 15000.000 0.000 1.505
20 60.00 1500.00 176 329 0.740 10000.000 0.000 0.610 15000.000 0.000 1.505
21 63.00 1500.00 161 345 0.740 10000.000 0.000 0.610 15000.000 0.000 1.505
22 66.00 1500.00 165 395 0.740 10000.000 0.000 0.610 15000.000 0.000 1.505
23 69.00 1500.00 162 417 0.740 10000.000 0.000 0.610 15000.000 0.000 1.505
24 72.00 1500.00 161 448 0.740 10000.000 0.000 0.610 15000.000 0.000 1.505
25 75.00 1500.00 146 477 0.740 10000.000 0.000 0.610 15000.000 0.000 1.505
26 78.00 1500.00 165 527 0.740 10000.000 0.000 0.610 15000.000 0.000 1.505
27 81.00 1500.00 134 474 0.740 10000.000 0.000 0.610 15000.000 0.000 1.505
28 84.00 1500.00 165 577 0.740 10000.000 0.000 0.610 15000.000 0.000 1.505
29 87.00 1500.00 155 502 0.740 10000.000 0.000 0.610 15000.000 0.000 1.505
30 90.00 1500.00 174 519 0.740 10000.000 0.000 0.610 15000.000 0.000 1.505
31 93.00 1500.00 166 540 0.740 10000.000 0.000 0.610 15000.000 0.000 1.505
32 96.00 1500.00 153 530 0.740 10000.000 0.000 0.610 15000.000 0.000 1.505
33 99.00 1500.00 164 521 0.740 10000.000 0.000 0.610 15000.000 0.000 1.505
34 102.00 1500.00 185 481 0.740 10000.000 0.000 0.610 15000.000 0.000 1.505
35 105.00 1500.00 172 458 0.740 10000.000 0.000 0.610 15000.000 0.000 1.505
36 108.00 1500.00 205 457 0.740 10000.000 0.000 0.610 15000.000 0.000 1.505
37 111.00 1500.00 182 428 0.740 10000.000 0.000 0.610 15000.000 0.000 1.505
38 114.00 1500.00 208 390 0.740 10000.000 0.000 0.610 15000.000 0.000 1.505
39 117.00 1500.00 208 395 0.740 10000.000 0.000 0.610 15000.000 0.000 1.505
40 120.00 1500.00 202 405 0.740 10000.000 0.000 0.610 15000.000 0.000 1.505
41 123.00 1500.00 191 339 0.740 10000.000 0.000 0.610 15000.000 0.000 1.505
42 126.00 1500.00 208 354 0.740 10000.000 0.000 0.610 15000.000 0.000 1.505
43 129.00 1500.00 197 354 0.740 10000.000 0.000 0.610 15000.000 0.000 1.505
44 132.00 1500.00 223 395 0.740 10000.000 0.000 0.610 15000.000 0.000 1.505
45 135.00 1500.00 198 375 0.740 10000.000 0.000 0.610 15000.000 0.000 1.505
46 138.00 1500.00 201 409 0.740 10000.000 0.000 0.610 15000.000 0.000 1.505
47 141.00 1500.00 167 409 0.740 10000.000 0.000 0.610 15000.000 0.000 1.505
48 144.00 1500.00 183 422 0.740 10000.000 0.000 0.610 15000.000 0.000 1.505
49 147.00 1500.00 181 405 0.740 10000.000 0.000 0.610 15000.000 0.000 1.505
50 150.00 1500.00 181 391 0.740 10000.000 0.000 0.610 15000.000 0.000 1.505
51 153.00 1500.00 150 394 0.740 10000.000 0.000 0.610 15000.000 0.000 1.505
52 156.00 1500.00 192 405 0.740 10000.000 0.000 0.610 15000.000 0.000 1.505
53 159.00 1500.00 160 385 0.740 10000.000 0.000 0.610 15000.000 0.000 1.505
54 162.00 1500.00 186 371 0.740 10000.000 0.000 0.610 15000.000 0.000 1.505
55 165.00 1500.00 167 390 0.740 10000.000 0.000 0.610 15000.000 0.000 1.505
56 168.00 1500.00 162 340 0.740 10000.000 0.000 0.610 15000.000 0.000 1.505
57 171.00 1500.00 164 395 0.740 10000.000 0.000 0.610 15000.000 0.000 1.505
58 174.00 1500.00 174 358 0.740 10000.000 0.000 0.610 15000.000 0.000 1.505
59 177.00 1500.00 163 416 0.740 10000.000 0.000 0.610 15000.000 0.000 1.505
60 180.00 1500.00 188 387 0.740 10000.000 0.000 0.610 15000.000 0.000 1.505
61 183.00 1500.00 171 397 0.740 10000.000 0.000 0.610 15000.000 0.000 1.505
62 186.00 1500.00 169 428 0.740 10000.000 0.000 0.610 15000.000 0.000 1.505
63 189.00 1500.00 163 417 0.740 10000.000 0.000 0.610 15000.000 0.000 1.505
64 192.00 1500.00 165 429 0.740 10000.000 0.000 0.610 15000.000 0.000 1.505
65 195.00 1500.00 169 507 0.740 10000.000 0.000 0.610 15000.000 0.000 1.505
66 198.00 1500.00 177 489 0.740 10000.000 0.000 0.610 15000.000 0.000 1.505
67 201.00 1500.00 174 563 0.740 10000.000 0.000 0.610 15000.000 0.000 1.505
68 204.00 1500.00 159 501 0.740 10000.000 0.000 0.610 15000.000 0.000 1.505
69 207.00 1500.00 171 587 0.740 10000.000 0.000 0.610 15000.000 0.000 1.505
70 210.00 1500.00 187 557 0.740 10000.000 0.000 0.610 15000.000 0.000 1.505
71 213.00 1500.00 150 510 0.740 10000.000 0.000 0.610 15000.000 0.000 1.505
72 216.00 1500.00 174 543 0.740 10000.000 0.000 0.610 15000.000 0.000 1.505
73 219.00 1500.00 177 484 0.740 10000.000 0.000 0.610 15000.000 0.000 1.505
74 222.00 1500.00 167 452 0.740 10000.000 0.000 0.610 15000.000 0.000 1.505
75 225.00 1500.00 190 426 0.740 10000.000 0.000 0.610 15000.000 0.000 1.505
76 228.00 1500.00 180 437 0.740 10000.000 0.000 0.610 15000.000 0.000 1.505
77 231.00 1500.00 197 364 0.740 10000.000 0.000 0.610 15000.000 0.000 1.505
78 234.00 1500.00 198 355 0.740 10000.000 0.000 0.610 15000.000 0.000 1.505
79 237.00 1500.00 185 297 0.740 10000.000 0.000 0.610 15000.000 0.000 1.505
80 240.00 1500.00 205 300 0.740 10000.000 0.000 0.610 15000.000 0.000 1.505
81 243.00 1500.00 213 277 0.740 10000.000 0.000 0.610 15000.000 0.000 1.505
82 246.00 1500.00 216 309 0.740 10000.000 0.000 0.610 15000.000 0.000 1.505
83 249.00 1500.00 213 294 0.740 10000.000 0.000 0.610 15000.000 0.000 1.505
84 252.00 1500.00 216 301 0.740 10000.000 0.000 0.610 15000.000 0.000 1.505
85 255.00 1500.00 187 300 0.740 10000.000 0.000 0.610 15000.000 0.000 1.505
86 258.00 1500.00 190 307 0.740 10000.000 0.000 0.610 15000.000 0.000 1.505
87 261.00 1500.00 193 379 0.740 10000.000 0.000 0.610 15000.000 0.000 1.505
88 264.00 1500.00 178 352 0.740 10000.000 0.000 0.610 15000.000 0.000 1.505
89 267.00 1500.00 150 375 0.740 10000.000 0.000 0.610 15000.000 0.000 1.505
90 270.00 1500.00 173 474 0.740 10000.000 0.000 0.610 15000.000 0.000 1.505
91 273.00 1500.00 142 442 0.740 10000.000 0.000 0.610 15000.000 0.000 1.505
92 276.00 1500.00 173 500 0.740 10000.000 0.000 0.610 15000.000 0.000 1.505
93 279.00 1500.00 156 529 0.740 10000.000 0.000 0.610 15000.000 0.000 1.505
94 282.00 1500.00 152 517 0.740 10000.000 0.000 0.610 15000.000 0.000 1.505
95 285.00 1500.00 165 584 0.740 10000.000 0.000 0.610 15000.000 0.000 1.505
96 288.00 1500.00 134 532 0.740 10000.000 0.000 0.610 15000.000 0.000 1.505
97 291.00 1500.00 175 539 0.740 10000.000 0.000 0.610 15000.000 0.000 1.505
98 294.00 1500.00 177 496 0.740 10000.000 0.000 0.610 15000.000 0.000 1.505
99 297.00 1500.00 168 489 0.740 10000.000 0.000 0.610 15000.000 0.000 1.505
100 300.00 1500.00 188 503 0.740 10000.000 0.000 0.610 15000.000 0.000 1.505
101 303.00 1500.00 183 452 0.740 10000.000 0.000 0.610 15000.000 0.000 1.505
102 306.00 1500.00 178 432 0.740 10000.000 0.000 0.610 15000.000 0.000 1.505
103 309.00 1500.00 184 381 0.740 10000.000 0.000 0.610 15000.000 0.000 1.505
104 312.00 1500.00 162 371 0.740 10000.000 0.000 0.610 15000.000 0.000 1.505
105 315.00 1500.00 166 374 0.740 10000.000 0.000 0.610 15000.000 0.000 1.505
106 318.00 1500.00 170 378 0.740 10000.000 0.000 0.610 15000.000 0.000 1.505
107 321.00 1500.00 163 361 0.740 10000.000 0.000 0.610 15000.000 0.000 1.505
108 324.00 1500.00 151 382 0.740 10000.000 0.000 0.610 15000.000 0.000 1.505
109 327.00 1500.00 168 367 0.740 10000.000 0.000 0.610 15000.000 0.000 1.505
110 330.00 1500.00 152 395 0.740 10000.000 0.000 0.610 15000.000 0.000 1.505
111 333.00 1500.00 177 410 0.740 10000.000 0.000 0.610 15000.000 0.000 1.505
112 336.00 1500.00 177 370 0.740 10000.000 0.000 0.610 15000.000 0.000 1.505
113 339.00 1500.00 173 406 0.740 10000.000 0.000 0.610 15000.000 0.000 1.505
114 342.00 1500.00 185 424 0.740 10000.000 0.000 0.610 15000.000 0.000 1.505
115 345.00 1500.00 188 411 0.740 10000.000 0.000 0.610 15000.000 0.000 1.505
116 348.00 1500.00 201 418 0.740 10000.000 0.000 0.610 15000.000 0.000 1.505
117 351.00 1500.00 214 378 0.740 10000.000 0.000 0.610 15000.000 0.000 1.505
118 354.00 1500.00 222 407 0.740 10000.000 0.000 0.610 15000.000 0.000 1.505
119 357.00 1500.00 200 372 0.740 10000.000 0.000 0.610 15000.000 0.000 1.505
120 360.00 1500.00 168 407 0.740 10000.000 0.000 0.610 15000.000 0.000 1.505
121 363.00 1500.00 211 397 0.740 10000.000 0.000 0.610 15000.000 0.000 1.505
122 366.00 1500.00 214 372 0.740 10000.000 0.000 0.610 15000.000 0.000 1.505
123 369.00 1500.00 188 369 0.740 10000.000 0.000 0.610 15000.000 0.000 1.505
124 372.00 1500.00 183 394 0.740 10000.000 0.000 0.610 15000.000 0.000 1.505
125 375.00 1500.00 209 389 0.740 10000.000 0.000 0.610 15000.000 0.000 1.505
126 378.00 1500.00 179 383 0.740 10000.000 0.000 0.610 15000.000 0.000 1.505
127 381.00 1500.00 164 356 0.740 10000.000 0.000 0.610 15000.000 0.000 1.505
128 384.00 1500.00 199 426 0.740 10000.000 0.000 0.610 15000.000 0.000 1.505
129 387.00 1500.00 199 407 0.740 10000.000 0.000 0.610 15000.000 0.000 1.505
130 390.00 1500.00 190 470 0.740 10000.000 0.000 0.610 15000.000 0.000 1.505
131 393.00 1500.00 162 464 0.740 10000.000 0.000 0.610 15000.000 0.000 1.505
132 396.00 1500.00 182 497 0.740 10000.000 0.000 0.610 15000.000 0.000 1.505
133 399.00 1500.00 158 471 0.740 10000.000 0.000 0.610 15000.000 0.000 1.505
134 402.00 1500.00 177 533 0.740 10000.000 0.000 0.610 15000.000 0.000 1.505
135 405.00 1500.00 173 547 0.740 10000.000 0.000 0.610 15000.000 0.000 1.505
136 408.00 1500.00 140 532 0.740 10000.000 0.000 0.610 15000.000 0.000 1.505
137 411.00 1500.00 159 516 0.740 10000.000 0.000 0.610 15000.000 0.000 1.505
138 414.00 1500.00 178 516 0.740 10000.000 0.000 0.610 15000.000 0.000 1.505
139 417.00 1500.00 160 492 0.740 10000.000 0.000 0.610 15000.000 0.000 1.505
140 420.00 1500.00 192 461 0.740 10000.000 0.000 0.610 15000.000 0.000 1.505
141 423.00 1500.00 165 461 0.740 10000.000 0.000 0.610 15000.000 0.000 1.505
142 426.00 1500.00 167 451 0.740 10000.000 0.000 0.610 15000.000 0.000 1.505
143 429.00 1500.00 166 410 0.740 10000.000 0.000 0.610 15000.000 0.000 1.505
144 432.00 1500.00 170 337 0.740 10000.000 0.000 0.610 15000.000 0.000 1.505
