# BinNR microsec tot-time (s)  O-Beam AUX Ampl_1(V) f_1(Hz) phase_1(deg) Ampl_2(V) f_2(Hz) phase_2(deg) chi(pos)
0 0.00 1500.00 105 247 0.740 10000.000 0.000 0.610 15000.000 0.000 1.318
1 3.00 1500.00 206 476 0.740 10000.000 0.000 0.610 15000.000 0.000 1.318
2 6.00 1500.00 195 460 0.740 10000.000 0.000 0.610 15000.000 0.000 1.318
3 9.00 1500.00 193 434 0.740 10000.000 0.000 0.610 15000.000 0.000 1.318
4 12.00 1500.00 196 442 0.740 10000.000 0.000 0.610 15000.000 0.000 1.318
5 15.00 1500.00 213 388 0.740 10000.000 0.000 0.610 15000.000 0.000 1.318
6 18.00 1500.00 194 477 0.740 10000.000 0.000 0.610 15000.000 0.000 1.318
7 21.00 1500.00 203 523 0.740 10000.000 0.000 0.610 15000.000 0.000 1.318
8 24.00 1500.00 228 507 0.740 10000.000 0.000 0.610 15000.000 0.000 1.318
9 27.00 1500.00 209 541 0.740 10000.000 0.000 0.610 15000.000 0.000 1.318
10 30.00 1500.00 239 579 0.740 10000.000 0.000 0.610 15000.000 0.000 1.318
11 33.00 1500.00 243 559 0.740 10000.000 0.000 0.610 15000.000 0.000 1.318
12 36.00 1500.00 244 577 0.740 10000.000 0.000 0.610 15000.000 0.000 1.318
13 39.00 1500.00 203 573 0.740 10000.000 0.000 0.610 15000.000 0.000 1.318
14 42.00 1500.00 237 529 0.740 10000.000 0.000 0.610 15000.000 0.000 1.318
15 45.00 1500.00 223 502 0.740 10000.000 0.000 0.610 15000.000 0.000 1.318
16 48.00 1500.00 228 480 0.740 10000.000 0.000 0.610 15000.000 0.000 1.318
17 51.00 1500.00 223 470 0.740 10000.000 0.000 0.610 15000.000 0.000 1.318
18 54.00 1500.00 242 463 0.740 10000.000 0.000 0.610 15000.000 0.000 1.318
19 57.00 1500.00 225 452 0.740 10000.000 0.000 0.610 15000.000 0.000 1.318
20 60.00 1500.00 211 474 0.740 10000.000 0.000 0.610 15000.000 0.000 1.318
21 63.00 1500.00 230 517 0.740 10000.000 0.000 0.610 15000.000 0.000 1.318
22 66.00 1500.00 214 517 0.740 10000.000 0.000 0.610 15000.000 0.000 1.318
23 69.00 1500.00 218 569 0.740 10000.000 0.000 0.610 15000.000 0.000 1.318
24 72.00 1500.00 187 533 0.740 10000.000 0.000 0.610 15000.000 0.000 1.318
25 75.00 1500.00 165 610 0.740 10000.000 0.000 0.610 15000.000 0.000 1.318
26 78.00 1500.00 165 611 0.740 10000.000 0.000 0.610 15000.000 0.000 1.318
27 81.00 1500.00 185 621 0.740 10000.000 0.000 0.610 15000.000 0.000 1.318
28 84.00 1500.00 179 664 0.740 10000.000 0.000 0.610 15000.000 0.000 1.318
29 87.00 1500.00 187 649 0.740 10000.000 0.000 0.610 15000.000 0.000 1.318
30 90.00 1500.00 202 688 0.740 10000.000 0.000 0.610 15000.000 0.000 1.318
31 93.00 1500.00 192 636 0.740 10000.000 0.000 0.610 15000.000 0.000 1.318
32 96.00 1500.00 194 602 0.740 10000.000 0.000 0.610 15000.000 0.000 1.318
33 99.00 1500.00 195 577 0.740 10000.000 0.000 0.610 15000.000 0.000 1.318
34 102.00 1500.00 192 585 0.740 10000.000 0.000 0.610 15000.000 0.000 1.318
35 105.00 1500.00 219 566 0.740 10000.000 0.000 0.610 15000.000 0.000 1.318
36 108.00 1500.00 206 533 0.740 10000.000 0.000 0.610 15000.000 0.000 1.318
37 111.00 1500.00 251 512 0.740 10000.000 0.000 0.610 15000.000 0.000 1.318
38 114.00 1500.00 226 503 0.740 10000.000 0.000 0.610 15000.000 0.000 1.318
39 117.00 1500.00 204 467 0.740 10000.000 0.000 0.610 15000.000 0.000 1.318
40 120.00 1500.00 254 509 0.740 10000.000 0.000 0.610 15000.000 0.000 1.318
41 123.00 1500.00 221 499 0.740 10000.000 0.000 0.610 15000.000 0.000 1.318
42 126.00 1500.00 233 477 0.740 10000.000 0.000 0.610 15000.000 0.000 1.318
43 129.00 1500.00 199 493 0.740 10000.000 0.000 0.610 15000.000 0.000 1.318
44 132.00 1500.00 221 545 0.740 10000.000 0.000 0.610 15000.000 0.000 1.318
45 135.00 1500.00 213 492 0.740 10000.000 0.000 0.610 15000.000 0.000 1.318
46 138.00 1500.00 206 545 0.740 10000.000 0.000 0.610 15000.000 0.000 1.318
47 141.00 1500.00 248 509 0.740 10000.000 0.000 0.610 15000.000 0.000 1.318
48 144.00 1500.00 248 531 0.740 10000.000 0.000 0.610 15000.000 0.000 1.318
49 147.00 1500.00 212 535 0.740 10000.000 0.000 0.610 15000.000 0.000 1.318
50 150.00 1500.00 193 529 0.740 10000.000 0.000 0.610 15000.000 0.000 1.318
51 153.00 1500.00 191 559 0.740 10000.000 0.000 0.610 15000.000 0.000 1.318
52 156.00 1500.00 190 560 0.740 10000.000 0.000 0.610 15000.000 0.000 1.318
53 159.00 1500.00 212 534 0.740 10000.000 0.000 0.610 15000.000 0.000 1.318
54 162.00 1500.00 211 503 0.740 10000.000 0.000 0.610 15000.000 0.000 1.318
55 165.00 1500.00 199 495 0.740 10000.000 0.000 0.610 15000.000 0.000 1.318
56 168.00 1500.00 200 515 0.740 10000.000 0.000 0.610 15000.000 0.000 1.318
57 171.00 1500.00 201 543 0.740 10000.000 0.000 0.610 15000.000 0.000 1.318
58 174.00 1500.00 202 519 0.740 10000.000 0.000 0.610 15000.000 0.000 1.318
59 177.00 1500.00 209 513 0.740 10000.000 0.000 0.610 15000.000 0.000 1.318
60 180.00 1500.00 196 558 0.740 10000.000 0.000 0.610 15000.000 0.000 1.318
61 183.00 1500.00 207 516 0.740 10000.000 0.000 0.610 15000.000 0.000 1.318
62 186.00 1500.00 223 521 0.740 10000.000 0.000 0.610 15000.000 0.000 1.318
63 189.00 1500.00 212 552 0.740 10000.000 0.000 0.610 15000.000 0.000 1.318
64 192.00 1500.00 224 563 0.740 10000.000 0.000 0.610 15000.000 0.000 1.318
65 195.00 1500.00 195 623 0.740 10000.000 0.000 0.610 15000.000 0.000 1.318
66 198.00 1500.00 217 647 0.740 10000.000 0.000 0.610 15000.000 0.000 1.318
67 201.00 1500.00 191 662 0.740 10000.000 0.000 0.610 15000.000 0.000 1.318
68 204.00 1500.00 180 620 0.740 10000.000 0.000 0.610 15000.000 0.000 1.318
69 207.00 1500.00 189 642 0.740 10000.000 0.000 0.610 15000.000 0.000 1.318
70 210.00 1500.00 201 622 0.740 10000.000 0.000 0.610 15000.000 0.000 1.318
71 213.00 1500.00 216 635 0.740 10000.000 0.000 0.610 15000.000 0.000 1.318
72 216.00 1500.00 232 648 0.740 10000.000 0.000 0.610 15000.000 0.000 1.318
73 219.00 1500.00 211 576 0.740 10000.000 0.000 0.610 15000.000 0.000 1.318
74 222.00 1500.00 219 587 0.740 10000.000 0.000 0.610 15000.000 0.000 1.318
75 225.00 1500.00 203 571 0.740 10000.000 0.000 0.610 15000.000 0.000 1.318
76 228.00 1500.00 226 574 0.740 10000.000 0.000 0.610 15000.000 0.000 1.318
77 231.00 1500.00 235 515 0.740 10000.000 0.000 0.610 15000.000 0.000 1.318
78 234.00 1500.00 255 490 0.740 10000.000 0.000 0.610 15000.000 0.000 1.318
79 237.00 1500.00 222 418 0.740 10000.000 0.000 0.610 15000.000 0.000 1.318
80 240.00 1500.00 239 431 0.740 10000.000 0.000 0.610 15000.000 0.000 1.318
81 243.00 1500.00 251 402 0.740 10000.000 0.000 0.610 15000.000 0.000 1.318
82 246.00 1500.00 232 431 0.740 10000.000 0.000 0.610 15000.000 0.000 1.318
83 249.00 1500.00 237 399 0.740 10000.000 0.000 0.610 15000.000 0.000 1.318
84 252.00 1500.00 231 402 0.740 10000.000 0.000 0.610 15000.000 0.000 1.318
85 255.00 1500.00 238 426 0.740 10000.000 0.000 0.610 15000.000 0.000 1.318
86 258.00 1500.00 230 443 0.740 10000.000 0.000 0.610 15000.000 0.000 1.318
87 261.00 1500.00 193 481 0.740 10000.000 0.000 0.610 15000.000 0.000 1.318
88 264.00 1500.00 195 486 0.740 10000.000 0.000 0.610 15000.000 0.000 1.318
89 267.00 1500.00 194 509 0.740 10000.000 0.000 0.610 15000.000 0.000 1.318
90 270.00 1500.00 198 562 0.740 10000.000 0.000 0.610 15000.000 0.000 1.318
91 273.00 1500.00 191 566 0.740 10000.000 0.000 0.610 15000.000 0.000 1.318
92 276.00 1500.00 186 653 0.740 10000.000 0.000 0.610 15000.000 0.000 1.318
93 279.00 1500.00 204 570 0.740 10000.000 0.000 0.610 15000.000 0.000 1.318
94 282.00 1500.00 194 637 0.740 10000.000 0.000 0.610 15000.000 0.000 1.318
95 285.00 1500.00 179 633 0.740 10000.000 0.000 0.610 15000.000 0.000 1.318
96 288.00 1500.00 201 684 0.740 10000.000 0.000 0.610 15000.000 0.000 1.318
97 291.00 1500.00 188 597 0.740 10000.000 0.000 0.610 15000.000 0.000 1.318
98 294.00 1500.00 204 674 0.740 10000.000 0.000 0.610 15000.000 0.000 1.318
99 297.00 1500.00 192 628 0.740 10000.000 0.000 0.610 15000.000 0.000 1.318
100 300.00 1500.00 217 606 0.740 10000.000 0.000 0.610 15000.000 0.000 1.318
101 303.00 1500.00 199 580 0.740 10000.000 0.000 0.610 15000.000 0.000 1.318
102 306.00 1500.00 219 578 0.740 10000.000 0.000 0.610 15000.000 0.000 1.318
103 309.00 1500.00 204 534 0.740 10000.000 0.000 0.610 15000.000 0.000 1.318
104 312.00 1500.00 191 550 0.740 10000.000 0.000 0.610 15000.000 0.000 1.318
105 315.00 1500.00 194 519 0.740 10000.000 0.000 0.610 15000.000 0.000 1.318
106 318.00 1500.00 224 546 0.740 10000.000 0.000 0.610 15000.000 0.000 1.318
107 321.00 1500.00 217 533 0.740 10000.000 0.000 0.610 15000.000 0.000 1.318
108 324.00 1500.00 190 503 0.740 10000.000 0.000 0.610 15000.000 0.000 1.318
109 327.00 1500.00 205 503 0.740 10000.000 0.000 0.610 15000.000 0.000 1.318
110 330.00 1500.00 231 518 0.740 10000.000 0.000 0.610 15000.000 0.000 1.318
111 333.00 1500.00 209 510 0.740 10000.000 0.000 0.610 15000.000 0.000 1.318
112 336.00 1500.00 200 540 0.740 10000.000 0.000 0.610 15000.000 0.000 1.318
113 339.00 1500.00 218 523 0.740 10000.000 0.000 0.610 15000.000 0.000 1.318
114 342.00 1500.00 224 517 0.740 10000.000 0.000 0.610 15000.000 0.000 1.318
115 345.00 1500.00 216 584 0.740 10000.000 0.000 0.610 15000.000 0.000 1.318
116 348.00 1500.00 248 513 0.740 10000.000 0.000 0.610 15000.000 0.000 1.318
117 351.00 1500.00 230 540 0.740 10000.000 0.000 0.610 15000.000 0.000 1.318
118 354.00 1500.00 215 544 0.740 10000.000 0.000 0.610 15000.000 0.000 1.318
119 357.00 1500.00 216 516 0.740 10000.000 0.000 0.610 15000.000 0.000 1.318
120 360.00 1500.00 222 489 0.740 10000.000 0.000 0.610 15000.000 0.000 1.318
121 363.00 1500.00 226 471 0.740 10000.000 0.000 0.610 15000.000 0.000 1.318
122 366.00 1500.00 236 544 0.740 10000.000 0.000 0.610 15000.000 0.000 1.318
123 369.00 1500.00 216 492 0.740 10000.000 0.000 0.610 15000.000 0.000 1.318
124 372.00 1500.00 239 482 0.740 10000.000 0.000 0.610 15000.000 0.000 1.318
125 375.00 1500.00 222 520 0.740 10000.000 0.000 0.610 15000.000 0.000 1.318
126 378.00 1500.00 204 499 0.740 10000.000 0.000 0.610 15000.000 0.000 1.318
127 381.00 1500.00 209 514 0.740 10000.000 0.000 0.610 15000.000 0.000 1.318
128 384.00 1500.00 227 537 0.740 10000.000 0.000 0.610 15000.000 0.000 1.318
129 387.00 1500.00 195 554 0.740 10000.000 0.000 0.610 15000.000 0.000 1.318
130 390.00 1500.00 216 606 0.740 10000.000 0.000 0.610 15000.000 0.000 1.318
131 393.00 1500.00 205 578 0.740 10000.000 0.000 0.610 15000.000 0.000 1.318
132 396.00 1500.00 209 626 0.740 10000.000 0.000 0.610 15000.000 0.000 1.318
133 399.00 1500.00 199 614 0.740 10000.000 0.000 0.610 15000.000 0.000 1.318
134 402.00 1500.00 196 629 0.740 10000.000 0.000 0.610 15000.000 0.000 1.318
135 405.00 1500.00 172 602 0.740 10000.000 0.000 0.610 15000.000 0.000 1.318
136 408.00 1500.00 196 607 0.740 10000.000 0.000 0.610 15000.000 0.000 1.318
137 411.00 1500.00 198 619 0.740 10000.000 0.000 0.610 15000.000 0.000 1.318
138 414.00 1500.00 205 634 0.740 10000.000 0.000 0.610 15000.000 0.000 1.318
139 417.00 1500.00 223 636 0.740 10000.000 0.000 0.610 15000.000 0.000 1.318
140 420.00 1500.00 215 614 0.740 10000.000 0.000 0.610 15000.000 0.000 1.318
141 423.00 1500.00 211 577 0.740 10000.000 0.000 0.610 15000.000 0.000 1.318
142 426.00 1500.00 197 560 0.740 10000.000 0.000 0.610 15000.000 0.000 1.318
143 429.00 1500.00 223 522 0.740 10000.000 0.000 0.610 15000.000 0.000 1.318
144 432.00 1500.00 209 453 0.740 10000.000 0.000 0.610 15000.000 0.000 1.318
