# BinNR microsec tot-time (s)  O-Beam AUX Ampl_1(V) f_1(Hz) phase_1(deg) Ampl_2(V) f_2(Hz) phase_2(deg) chi(pos)
0 0.00 1500.03 69 215 0.740 10000.000 0.000 0.610 15000.000 0.000 0.330
1 3.00 1500.03 146 417 0.740 10000.000 0.000 0.610 15000.000 0.000 0.330
2 6.00 1500.03 161 445 0.740 10000.000 0.000 0.610 15000.000 0.000 0.330
3 9.00 1500.03 147 460 0.740 10000.000 0.000 0.610 15000.000 0.000 0.330
4 12.00 1500.03 133 452 0.740 10000.000 0.000 0.610 15000.000 0.000 0.330
5 15.00 1500.03 162 436 0.740 10000.000 0.000 0.610 15000.000 0.000 0.330
6 18.00 1500.03 134 383 0.740 10000.000 0.000 0.610 15000.000 0.000 0.330
7 21.00 1500.03 113 369 0.740 10000.000 0.000 0.610 15000.000 0.000 0.330
8 24.00 1500.03 133 383 0.740 10000.000 0.000 0.610 15000.000 0.000 0.330
9 27.00 1500.03 135 379 0.740 10000.000 0.000 0.610 15000.000 0.000 0.330
10 30.00 1500.03 134 331 0.740 10000.000 0.000 0.610 15000.000 0.000 0.330
11 33.00 1500.03 114 318 0.740 10000.000 0.000 0.610 15000.000 0.000 0.330
12 36.00 1500.03 113 334 0.740 10000.000 0.000 0.610 15000.000 0.000 0.330
13 39.00 1500.03 122 345 0.740 10000.000 0.000 0.610 15000.000 0.000 0.330
14 42.00 1500.03 95 383 0.740 10000.000 0.000 0.610 15000.000 0.000 0.330
15 45.00 1500.03 117 362 0.740 10000.000 0.000 0.610 15000.000 0.000 0.330
16 48.00 1500.03 102 421 0.740 10000.000 0.000 0.610 15000.000 0.000 0.330
17 51.00 1500.03 111 430 0.740 10000.000 0.000 0.610 15000.000 0.000 0.330
18 54.00 1500.03 126 395 0.740 10000.000 0.000 0.610 15000.000 0.000 0.330
19 57.00 1500.03 103 376 0.740 10000.000 0.000 0.610 15000.000 0.000 0.330
20 60.00 1500.03 131 469 0.740 10000.000 0.000 0.610 15000.000 0.000 0.330
21 63.00 1500.03 143 379 0.740 10000.000 0.000 0.610 15000.000 0.000 0.330
22 66.00 1500.03 129 401 0.740 10000.000 0.000 0.610 15000.000 0.000 0.330
23 69.00 1500.03 130 374 0.740 10000.000 0.000 0.610 15000.000 0.000 0.330
24 72.00 1500.03 149 339 0.740 10000.000 0.000 0.610 15000.000 0.000 0.330
25 75.00 1500.03 158 319 0.740 10000.000 0.000 0.610 15000.000 0.000 0.330
26 78.00 1500.03 144 259 0.740 10000.000 0.000 0.610 15000.000 0.000 0.330
27 81.00 1500.03 167 280 0.740 10000.000 0.000 0.610 15000.000 0.000 0.330
28 84.00 1500.03 156 264 0.740 10000.000 0.000 0.610 15000.000 0.000 0.330
29 87.00 1500.03 162 254 0.740 10000.000 0.000 0.610 15000.000 0.000 0.330
30 90.00 1500.03 190 286 0.740 10000.000 0.000 0.610 15000.000 0.000 0.330
31 93.00 1500.03 145 276 0.740 10000.000 0.000 0.610 15000.000 0.000 0.330
32 96.00 1500.03 164 258 0.740 10000.000 0.000 0.610 15000.000 0.000 0.330
33 99.00 1500.03 136 288 0.740 10000.000 0.000 0.610 15000.000 0.000 0.330
34 102.00 1500.03 153 293 0.740 10000.000 0.000 0.610 15000.000 0.000 0.330
35 105.00 1500.03 123 295 0.740 10000.000 0.000 0.610 15000.000 0.000 0.330
36 108.00 1500.03 139 314 0.740 10000.000 0.000 0.610 15000.000 0.000 0.330
37 111.00 1500.03 118 370 0.740 10000.000 0.000 0.610 15000.000 0.000 0.330
38 114.00 1500.03 116 404 0.740 10000.000 0.000 0.610 15000.000 0.000 0.330
39 117.00 1500.03 124 406 0.740 10000.000 0.000 0.610 15000.000 0.000 0.330
40 120.00 1500.03 122 412 0.740 10000.000 0.000 0.610 15000.000 0.000 0.330
41 123.00 1500.03 112 390 0.740 10000.000 0.000 0.610 15000.000 0.000 0.330
42 126.00 1500.03 114 421 0.740 10000.000 0.000 0.610 15000.000 0.000 0.330
43 129.00 1500.03 110 397 0.740 10000.000 0.000 0.610 15000.000 0.000 0.330
44 132.00 1500.03 97 371 0.740 10000.000 0.000 0.610 15000.000 0.000 0.330
45 135.00 1500.03 126 380 0.740 10000.000 0.000 0.610 15000.000 0.000 0.330
46 138.00 1500.03 109 365 0.740 10000.000 0.000 0.610 15000.000 0.000 0.330
47 141.00 1500.03 124 354 0.740 10000.000 0.000 0.610 15000.000 0.000 0.330
48 144.00 1500.03 126 365 0.740 10000.000 0.000 0.610 15000.000 0.000 0.330
49 147.00 1500.03 119 333 0.740 10000.000 0.000 0.610 15000.000 0.000 0.330
50 150.00 1500.03 133 375 0.740 10000.000 0.000 0.610 15000.000 0.000 0.330
51 153.00 1500.03 133 358 0.740 10000.000 0.000 0.610 15000.000 0.000 0.330
52 156.00 1500.03 132 380 0.740 10000.000 0.000 0.610 15000.000 0.000 0.330
53 159.00 1500.03 127 375 0.740 10000.000 0.000 0.610 15000.000 0.000 0.330
54 162.00 1500.03 144 389 0.740 10000.000 0.000 0.610 15000.000 0.000 0.330
55 165.00 1500.03 144 370 0.740 10000.000 0.000 0.610 15000.000 0.000 0.330
56 168.00 1500.03 132 414 0.740 10000.000 0.000 0.610 15000.000 0.000 0.330
57 171.00 1500.03 143 406 0.740 10000.000 0.000 0.610 15000.000 0.000 0.330
58 174.00 1500.03 142 406 0.740 10000.000 0.000 0.610 15000.000 0.000 0.330
59 177.00 1500.03 129 365 0.740 10000.000 0.000 0.610 15000.000 0.000 0.330
60 180.00 1500.03 129 341 0.740 10000.000 0.000 0.610 15000.000 0.000 0.330
61 183.00 1500.03 122 358 0.740 10000.000 0.000 0.610 15000.000 0.000 0.330
62 186.00 1500.03 140 347 0.740 10000.000 0.000 0.610 15000.000 0.000 0.330
63 189.00 1500.03 157 321 0.740 10000.000 0.000 0.610 15000.000 0.000 0.330
64 192.00 1500.03 140 329 0.740 10000.000 0.000 0.610 15000.000 0.000 0.330
65 195.00 1500.03 120 308 0.740 10000.000 0.000 0.610 15000.000 0.000 0.330
66 198.00 1500.03 145 290 0.740 10000.000 0.000 0.610 15000.000 0.000 0.330
67 201.00 1500.03 135 276 0.740 10000.000 0.000 0.610 15000.000 0.000 0.330
68 204.00 1500.03 133 240 0.740 10000.000 0.000 0.610 15000.000 0.000 0.330
69 207.00 1500.03 154 270 0.740 10000.000 0.000 0.610 15000.000 0.000 0.330
70 210.00 1500.03 161 251 0.740 10000.000 0.000 0.610 15000.000 0.000 0.330
71 213.00 1500.03 118 227 0.740 10000.000 0.000 0.610 15000.000 0.000 0.330
72 216.00 1500.03 136 257 0.740 10000.000 0.000 0.610 15000.000 0.000 0.330
73 219.00 1500.03 116 268 0.740 10000.000 0.000 0.610 15000.000 0.000 0.330
74 222.00 1500.03 149 287 0.740 10000.000 0.000 0.610 15000.000 0.000 0.330
75 225.00 1500.03 136 303 0.740 10000.000 0.000 0.610 15000.000 0.000 0.330
76 228.00 1500.03 118 331 0.740 10000.000 0.000 0.610 15000.000 0.000 0.330
77 231.00 1500.03 112 353 0.740 10000.000 0.000 0.610 15000.000 0.000 0.330
78 234.00 1500.03 106 434 0.740 10000.000 0.000 0.610 15000.000 0.000 0.330
79 237.00 1500.03 100 412 0.740 10000.000 0.000 0.610 15000.000 0.000 0.330
80 240.00 1500.03 131 483 0.740 10000.000 0.000 0.610 15000.000 0.000 0.330
81 243.00 1500.03 103 491 0.740 10000.000 0.000 0.610 15000.000 0.000 0.330
82 246.00 1500.03 120 463 0.740 10000.000 0.000 0.610 15000.000 0.000 0.330
83 249.00 1500.03 96 495 0.740 10000.000 0.000 0.610 15000.000 0.000 0.330
84 252.00 1500.03 120 472 0.740 10000.000 0.000 0.610 15000.000 0.000 0.330
85 255.00 1500.03 121 486 0.740 10000.000 0.000 0.610 15000.000 0.000 0.330
86 258.00 1500.03 120 469 0.740 10000.000 0.000 0.610 15000.000 0.000 0.330
87 261.00 1500.03 123 384 0.740 10000.000 0.000 0.610 15000.000 0.000 0.330
88 264.00 1500.03 119 404 0.740 10000.000 0.000 0.610 15000.000 0.000 0.330
89 267.00 1500.03 146 357 0.740 10000.000 0.000 0.610 15000.000 0.000 0.330
90 270.00 1500.03 137 317 0.740 10000.000 0.000 0.610 15000.000 0.000 0.330
91 273.00 1500.03 160 322 0.740 10000.000 0.000 0.610 15000.000 0.000 0.330
92 276.00 1500.03 158 288 0.740 10000.000 0.000 0.610 15000.000 0.000 0.330
93 279.00 1500.03 160 257 0.740 10000.000 0.000 0.610 15000.000 0.000 0.330
94 282.00 1500.03 147 237 0.740 10000.000 0.000 0.610 15000.000 0.000 0.330
95 285.00 1500.03 129 246 0.740 10000.000 0.000 0.610 15000.000 0.000 0.330
96 288.00 1500.03 130 253 0.740 10000.000 0.000 0.610 15000.000 0.000 0.330
97 291.00 1500.03 144 269 0.740 10000.000 0.000 0.610 15000.000 0.000 0.330
98 294.00 1500.03 136 253 0.740 10000.000 0.000 0.610 15000.000 0.000 0.330
99 297.00 1500.03 139 254 0.740 10000.000 0.000 0.610 15000.000 0.000 0.330
100 300.00 1500.03 143 279 0.740 10000.000 0.000 0.610 15000.000 0.000 0.330
101 303.00 1500.03 143 309 0.740 10000.000 0.000 0.610 15000.000 0.000 0.330
102 306.00 1500.03 152 306 0.740 10000.000 0.000 0.610 15000.000 0.000 0.330
103 309.00 1500.03 133 328 0.740 10000.000 0.000 0.610 15000.000 0.000 0.330
104 312.00 1500.03 146 344 0.740 10000.000 0.000 0.610 15000.000 0.000 0.330
105 315.00 1500.03 126 364 0.740 10000.000 0.000 0.610 15000.000 0.000 0.330
106 318.00 1500.03 157 399 0.740 10000.000 0.000 0.610 15000.000 0.000 0.330
107 321.00 1500.03 144 361 0.740 10000.000 0.000 0.610 15000.000 0.000 0.330
108 324.00 1500.03 157 366 0.740 10000.000 0.000 0.610 15000.000 0.000 0.330
109 327.00 1500.03 146 433 0.740 10000.000 0.000 0.610 15000.000 0.000 0.330
110 330.00 1500.03 140 390 0.740 10000.000 0.000 0.610 15000.000 0.000 0.330
111 333.00 1500.03 129 365 0.740 10000.000 0.000 0.610 15000.000 0.000 0.330
112 336.00 1500.03 141 369 0.740 10000.000 0.000 0.610 15000.000 0.000 0.330
113 339.00 1500.03 137 363 0.740 10000.000 0.000 0.610 15000.000 0.000 0.330
114 342.00 1500.03 123 335 0.740 10000.000 0.000 0.610 15000.000 0.000 0.330
115 345.00 1500.03 105 346 0.740 10000.000 0.000 0.610 15000.000 0.000 0.330
116 348.00 1500.03 99 322 0.740 10000.000 0.000 0.610 15000.000 0.000 0.330
117 351.00 1500.03 113 362 0.740 10000.000 0.000 0.610 15000.000 0.000 0.330
118 354.00 1500.03 114 351 0.740 10000.000 0.000 0.610 15000.000 0.000 0.330
119 357.00 1500.03 97 367 0.740 10000.000 0.000 0.610 15000.000 0.000 0.330
120 360.00 1500.03 93 383 0.740 10000.000 0.000 0.610 15000.000 0.000 0.330
121 363.00 1500.03 113 369 0.740 10000.000 0.000 0.610 15000.000 0.000 0.330
122 366.00 1500.03 130 422 0.740 10000.000 0.000 0.610 15000.000 0.000 0.330
123 369.00 1500.03 86 371 0.740 10000.000 0.000 0.610 15000.000 0.000 0.330
124 372.00 1500.03 128 356 0.740 10000.000 0.000 0.610 15000.000 0.000 0.330
125 375.00 1500.03 122 377 0.740 10000.000 0.000 0.610 15000.000 0.000 0.330
126 378.00 1500.03 127 382 0.740 10000.000 0.000 0.610 15000.000 0.000 0.330
127 381.00 1500.03 134 351 0.740 10000.000 0.000 0.610 15000.000 0.000 0.330
128 384.00 1500.03 147 351 0.740 10000.000 0.000 0.610 15000.000 0.000 0.330
129 387.00 1500.03 133 353 0.740 10000.000 0.000 0.610 15000.000 0.000 0.330
130 390.00 1500.03 138 350 0.740 10000.000 0.000 0.610 15000.000 0.000 0.330
131 393.00 1500.03 159 285 0.740 10000.000 0.000 0.610 15000.000 0.000 0.330
132 396.00 1500.03 131 297 0.740 10000.000 0.000 0.610 15000.000 0.000 0.330
133 399.00 1500.03 128 282 0.740 10000.000 0.000 0.610 15000.000 0.000 0.330
134 402.00 1500.03 156 261 0.740 10000.000 0.000 0.610 15000.000 0.000 0.330
135 405.00 1500.03 120 248 0.740 10000.000 0.000 0.610 15000.000 0.000 0.330
136 408.00 1500.03 126 255 0.740 10000.000 0.000 0.610 15000.000 0.000 0.330
137 411.00 1500.03 140 248 0.740 10000.000 0.000 0.610 15000.000 0.000 0.330
138 414.00 1500.03 131 278 0.740 10000.000 0.000 0.610 15000.000 0.000 0.330
139 417.00 1500.03 126 264 0.740 10000.000 0.000 0.610 15000.000 0.000 0.330
140 420.00 1500.03 118 255 0.740 10000.000 0.000 0.610 15000.000 0.000 0.330
141 423.00 1500.03 139 296 0.740 10000.000 0.000 0.610 15000.000 0.000 0.330
142 426.00 1500.03 138 331 0.740 10000.000 0.000 0.610 15000.000 0.000 0.330
143 429.00 1500.03 137 364 0.740 10000.000 0.000 0.610 15000.000 0.000 0.330
144 432.00 1500.03 145 385 0.740 10000.000 0.000 0.610 15000.000 0.000 0.330
