# BinNR microsec tot-time (s)  O-Beam AUX Ampl_1(V) f_1(Hz) phase_1(deg) Ampl_2(V) f_2(Hz) phase_2(deg) chi(pos)
0 0.00 1500.02 79 300 0.740 10000.000 0.000 0.610 15000.000 0.000 0.505
1 3.00 1500.02 172 536 0.740 10000.000 0.000 0.610 15000.000 0.000 0.505
2 6.00 1500.02 187 603 0.740 10000.000 0.000 0.610 15000.000 0.000 0.505
3 9.00 1500.02 158 557 0.740 10000.000 0.000 0.610 15000.000 0.000 0.505
4 12.00 1500.02 150 537 0.740 10000.000 0.000 0.610 15000.000 0.000 0.505
5 15.00 1500.02 154 520 0.740 10000.000 0.000 0.610 15000.000 0.000 0.505
6 18.00 1500.02 155 547 0.740 10000.000 0.000 0.610 15000.000 0.000 0.505
7 21.00 1500.02 167 491 0.740 10000.000 0.000 0.610 15000.000 0.000 0.505
8 24.00 1500.02 174 521 0.740 10000.000 0.000 0.610 15000.000 0.000 0.505
9 27.00 1500.02 160 467 0.740 10000.000 0.000 0.610 15000.000 0.000 0.505
10 30.00 1500.02 134 500 0.740 10000.000 0.000 0.610 15000.000 0.000 0.505
11 33.00 1500.02 135 470 0.740 10000.000 0.000 0.610 15000.000 0.000 0.505
12 36.00 1500.02 134 467 0.740 10000.000 0.000 0.610 15000.000 0.000 0.505
13 39.00 1500.02 171 466 0.740 10000.000 0.000 0.610 15000.000 0.000 0.505
14 42.00 1500.02 159 463 0.740 10000.000 0.000 0.610 15000.000 0.000 0.505
15 45.00 1500.02 131 552 0.740 10000.000 0.000 0.610 15000.000 0.000 0.505
16 48.00 1500.02 138 554 0.740 10000.000 0.000 0.610 15000.000 0.000 0.505
17 51.00 1500.02 145 573 0.740 10000.000 0.000 0.610 15000.000 0.000 0.505
18 54.00 1500.02 134 544 0.740 10000.000 0.000 0.610 15000.000 0.000 0.505
19 57.00 1500.02 145 549 0.740 10000.000 0.000 0.610 15000.000 0.000 0.505
20 60.00 1500.02 130 543 0.740 10000.000 0.000 0.610 15000.000 0.000 0.505
21 63.00 1500.02 146 553 0.740 10000.000 0.000 0.610 15000.000 0.000 0.505
22 66.00 1500.02 172 480 0.740 10000.000 0.000 0.610 15000.000 0.000 0.505
23 69.00 1500.02 176 450 0.740 10000.000 0.000 0.610 15000.000 0.000 0.505
24 72.00 1500.02 206 480 0.740 10000.000 0.000 0.610 15000.000 0.000 0.505
25 75.00 1500.02 188 417 0.740 10000.000 0.000 0.610 15000.000 0.000 0.505
26 78.00 1500.02 171 383 0.740 10000.000 0.000 0.610 15000.000 0.000 0.505
27 81.00 1500.02 201 369 0.740 10000.000 0.000 0.610 15000.000 0.000 0.505
28 84.00 1500.02 198 371 0.740 10000.000 0.000 0.610 15000.000 0.000 0.505
29 87.00 1500.02 207 343 0.740 10000.000 0.000 0.610 15000.000 0.000 0.505
30 90.00 1500.02 197 348 0.740 10000.000 0.000 0.610 15000.000 0.000 0.505
31 93.00 1500.02 196 371 0.740 10000.000 0.000 0.610 15000.000 0.000 0.505
32 96.00 1500.02 160 394 0.740 10000.000 0.000 0.610 15000.000 0.000 0.505
33 99.00 1500.02 164 388 0.740 10000.000 0.000 0.610 15000.000 0.000 0.505
34 102.00 1500.02 168 461 0.740 10000.000 0.000 0.610 15000.000 0.000 0.505
35 105.00 1500.02 190 443 0.740 10000.000 0.000 0.610 15000.000 0.000 0.505
36 108.00 1500.02 161 503 0.740 10000.000 0.000 0.610 15000.000 0.000 0.505
37 111.00 1500.02 172 487 0.740 10000.000 0.000 0.610 15000.000 0.000 0.505
38 114.00 1500.02 150 495 0.740 10000.000 0.000 0.610 15000.000 0.000 0.505
39 117.00 1500.02 139 512 0.740 10000.000 0.000 0.610 15000.000 0.000 0.505
40 120.00 1500.02 118 489 0.740 10000.000 0.000 0.610 15000.000 0.000 0.505
41 123.00 1500.02 126 547 0.740 10000.000 0.000 0.610 15000.000 0.000 0.505
42 126.00 1500.02 137 524 0.740 10000.000 0.000 0.610 15000.000 0.000 0.505
43 129.00 1500.02 126 504 0.740 10000.000 0.000 0.610 15000.000 0.000 0.505
44 132.00 1500.02 119 502 0.740 10000.000 0.000 0.610 15000.000 0.000 0.505
45 135.00 1500.02 138 521 0.740 10000.000 0.000 0.610 15000.000 0.000 0.505
46 138.00 1500.02 155 511 0.740 10000.000 0.000 0.610 15000.000 0.000 0.505
47 141.00 1500.02 153 518 0.740 10000.000 0.000 0.610 15000.000 0.000 0.505
48 144.00 1500.02 175 462 0.740 10000.000 0.000 0.610 15000.000 0.000 0.505
49 147.00 1500.02 130 470 0.740 10000.000 0.000 0.610 15000.000 0.000 0.505
50 150.00 1500.02 158 446 0.740 10000.000 0.000 0.610 15000.000 0.000 0.505
51 153.00 1500.02 134 490 0.740 10000.000 0.000 0.610 15000.000 0.000 0.505
52 156.00 1500.02 185 481 0.740 10000.000 0.000 0.610 15000.000 0.000 0.505
53 159.00 1500.02 162 507 0.740 10000.000 0.000 0.610 15000.000 0.000 0.505
54 162.00 1500.02 180 521 0.740 10000.000 0.000 0.610 15000.000 0.000 0.505
55 165.00 1500.02 176 516 0.740 10000.000 0.000 0.610 15000.000 0.000 0.505
56 168.00 1500.02 188 549 0.740 10000.000 0.000 0.610 15000.000 0.000 0.505
57 171.00 1500.02 166 548 0.740 10000.000 0.000 0.610 15000.000 0.000 0.505
58 174.00 1500.02 198 571 0.740 10000.000 0.000 0.610 15000.000 0.000 0.505
59 177.00 1500.02 172 514 0.740 10000.000 0.000 0.610 15000.000 0.000 0.505
60 180.00 1500.02 174 499 0.740 10000.000 0.000 0.610 15000.000 0.000 0.505
61 183.00 1500.02 191 457 0.740 10000.000 0.000 0.610 15000.000 0.000 0.505
62 186.00 1500.02 173 474 0.740 10000.000 0.000 0.610 15000.000 0.000 0.505
63 189.00 1500.02 193 428 0.740 10000.000 0.000 0.610 15000.000 0.000 0.505
64 192.00 1500.02 182 439 0.740 10000.000 0.000 0.610 15000.000 0.000 0.505
65 195.00 1500.02 155 426 0.740 10000.000 0.000 0.610 15000.000 0.000 0.505
66 198.00 1500.02 198 460 0.740 10000.000 0.000 0.610 15000.000 0.000 0.505
67 201.00 1500.02 193 374 0.740 10000.000 0.000 0.610 15000.000 0.000 0.505
68 204.00 1500.02 170 377 0.740 10000.000 0.000 0.610 15000.000 0.000 0.505
69 207.00 1500.02 184 325 0.740 10000.000 0.000 0.610 15000.000 0.000 0.505
70 210.00 1500.02 182 357 0.740 10000.000 0.000 0.610 15000.000 0.000 0.505
71 213.00 1500.02 170 323 0.740 10000.000 0.000 0.610 15000.000 0.000 0.505
72 216.00 1500.02 191 408 0.740 10000.000 0.000 0.610 15000.000 0.000 0.505
73 219.00 1500.02 170 387 0.740 10000.000 0.000 0.610 15000.000 0.000 0.505
74 222.00 1500.02 192 424 0.740 10000.000 0.000 0.610 15000.000 0.000 0.505
75 225.00 1500.02 146 447 0.740 10000.000 0.000 0.610 15000.000 0.000 0.505
76 228.00 1500.02 161 512 0.740 10000.000 0.000 0.610 15000.000 0.000 0.505
77 231.00 1500.02 145 531 0.740 10000.000 0.000 0.610 15000.000 0.000 0.505
78 234.00 1500.02 136 554 0.740 10000.000 0.000 0.610 15000.000 0.000 0.505
79 237.00 1500.02 152 569 0.740 10000.000 0.000 0.610 15000.000 0.000 0.505
80 240.00 1500.02 142 598 0.740 10000.000 0.000 0.610 15000.000 0.000 0.505
81 243.00 1500.02 134 619 0.740 10000.000 0.000 0.610 15000.000 0.000 0.505
82 246.00 1500.02 144 610 0.740 10000.000 0.000 0.610 15000.000 0.000 0.505
83 249.00 1500.02 138 636 0.740 10000.000 0.000 0.610 15000.000 0.000 0.505
84 252.00 1500.02 159 674 0.740 10000.000 0.000 0.610 15000.000 0.000 0.505
85 255.00 1500.02 145 581 0.740 10000.000 0.000 0.610 15000.000 0.000 0.505
86 258.00 1500.02 133 602 0.740 10000.000 0.000 0.610 15000.000 0.000 0.505
87 261.00 1500.02 149 594 0.740 10000.000 0.000 0.610 15000.000 0.000 0.505
88 264.00 1500.02 152 576 0.740 10000.000 0.000 0.610 15000.000 0.000 0.505
89 267.00 1500.02 167 480 0.740 10000.000 0.000 0.610 15000.000 0.000 0.505
90 270.00 1500.02 188 471 0.740 10000.000 0.000 0.610 15000.000 0.000 0.505
91 273.00 1500.02 186 409 0.740 10000.000 0.000 0.610 15000.000 0.000 0.505
92 276.00 1500.02 160 394 0.740 10000.000 0.000 0.610 15000.000 0.000 0.505
93 279.00 1500.02 205 378 0.740 10000.000 0.000 0.610 15000.000 0.000 0.505
94 282.00 1500.02 179 372 0.740 10000.000 0.000 0.610 15000.000 0.000 0.505
95 285.00 1500.02 193 344 0.740 10000.000 0.000 0.610 15000.000 0.000 0.505
96 288.00 1500.02 175 338 0.740 10000.000 0.000 0.610 15000.000 0.000 0.505
97 291.00 1500.02 166 334 0.740 10000.000 0.000 0.610 15000.000 0.000 0.505
98 294.00 1500.02 183 360 0.740 10000.000 0.000 0.610 15000.000 0.000 0.505
99 297.00 1500.02 180 370 0.740 10000.000 0.000 0.610 15000.000 0.000 0.505
100 300.00 1500.02 161 428 0.740 10000.000 0.000 0.610 15000.000 0.000 0.505
101 303.00 1500.02 177 432 0.740 10000.000 0.000 0.610 15000.000 0.000 0.505
102 306.00 1500.02 182 412 0.740 10000.000 0.000 0.610 15000.000 0.000 0.505
103 309.00 1500.02 164 426 0.740 10000.000 0.000 0.610 15000.000 0.000 0.505
104 312.00 1500.02 149 476 0.740 10000.000 0.000 0.610 15000.000 0.000 0.505
105 315.00 1500.02 156 494 0.740 10000.000 0.000 0.610 15000.000 0.000 0.505
106 318.00 1500.02 159 568 0.740 10000.000 0.000 0.610 15000.000 0.000 0.505
107 321.00 1500.02 177 505 0.740 10000.000 0.000 0.610 15000.000 0.000 0.505
108 324.00 1500.02 179 491 0.740 10000.000 0.000 0.610 15000.000 0.000 0.505
109 327.00 1500.02 163 484 0.740 10000.000 0.000 0.610 15000.000 0.000 0.505
110 330.00 1500.02 185 544 0.740 10000.000 0.000 0.610 15000.000 0.000 0.505
111 333.00 1500.02 195 517 0.740 10000.000 0.000 0.610 15000.000 0.000 0.505
112 336.00 1500.02 193 522 0.740 10000.000 0.000 0.610 15000.000 0.000 0.505
113 339.00 1500.02 155 508 0.740 10000.000 0.000 0.610 15000.000 0.000 0.505
114 342.00 1500.02 181 479 0.740 10000.000 0.000 0.610 15000.000 0.000 0.505
115 345.00 1500.02 138 505 0.740 10000.000 0.000 0.610 15000.000 0.000 0.505
116 348.00 1500.02 159 456 0.740 10000.000 0.000 0.610 15000.000 0.000 0.505
117 351.00 1500.02 135 497 0.740 10000.000 0.000 0.610 15000.000 0.000 0.505
118 354.00 1500.02 138 486 0.740 10000.000 0.000 0.610 15000.000 0.000 0.505
119 357.00 1500.02 126 483 0.740 10000.000 0.000 0.610 15000.000 0.000 0.505
120 360.00 1500.02 129 492 0.740 10000.000 0.000 0.610 15000.000 0.000 0.505
121 363.00 1500.02 156 495 0.740 10000.000 0.000 0.610 15000.000 0.000 0.505
122 366.00 1500.02 147 483 0.740 10000.000 0.000 0.610 15000.000 0.000 0.505
123 369.00 1500.02 154 466 0.740 10000.000 0.000 0.610 15000.000 0.000 0.505
124 372.00 1500.02 147 511 0.740 10000.000 0.000 0.610 15000.000 0.000 0.505
125 375.00 1500.02 149 509 0.740 10000.000 0.000 0.610 15000.000 0.000 0.505
126 378.00 1500.02 175 500 0.740 10000.000 0.000 0.610 15000.000 0.000 0.505
127 381.00 1500.02 159 493 0.740 10000.000 0.000 0.610 15000.000 0.000 0.505
128 384.00 1500.02 155 510 0.740 10000.000 0.000 0.610 15000.000 0.000 0.505
129 387.00 1500.02 187 453 0.740 10000.000 0.000 0.610 15000.000 0.000 0.505
130 390.00 1500.02 150 422 0.740 10000.000 0.000 0.610 15000.000 0.000 0.505
131 393.00 1500.02 152 426 0.740 10000.000 0.000 0.610 15000.000 0.000 0.505
132 396.00 1500.02 150 402 0.740 10000.000 0.000 0.610 15000.000 0.000 0.505
133 399.00 1500.02 160 399 0.740 10000.000 0.000 0.610 15000.000 0.000 0.505
134 402.00 1500.02 171 420 0.740 10000.000 0.000 0.610 15000.000 0.000 0.505
135 405.00 1500.02 190 364 0.740 10000.000 0.000 0.610 15000.000 0.000 0.505
136 408.00 1500.02 178 354 0.740 10000.000 0.000 0.610 15000.000 0.000 0.505
137 411.00 1500.02 160 361 0.740 10000.000 0.000 0.610 15000.000 0.000 0.505
138 414.00 1500.02 197 369 0.740 10000.000 0.000 0.610 15000.000 0.000 0.505
139 417.00 1500.02 180 360 0.740 10000.000 0.000 0.610 15000.000 0.000 0.505
140 420.00 1500.02 176 373 0.740 10000.000 0.000 0.610 15000.000 0.000 0.505
141 423.00 1500.02 174 429 0.740 10000.000 0.000 0.610 15000.000 0.000 0.505
142 426.00 1500.02 180 493 0.740 10000.000 0.000 0.610 15000.000 0.000 0.505
143 429.00 1500.02 190 501 0.740 10000.000 0.000 0.610 15000.000 0.000 0.505
144 432.00 1500.02 195 565 0.740 10000.000 0.000 0.610 15000.000 0.000 0.505
