# BinNR microsec tot-time (s)  O-Beam AUX Ampl_1(V) f_1(Hz) phase_1(deg) Ampl_2(V) f_2(Hz) phase_2(deg) chi(pos)
0 0.00 1500.03 239 479 0.740 10000.000 0.000 0.610 15000.000 0.000 0.835
1 3.00 1500.03 452 960 0.740 10000.000 0.000 0.610 15000.000 0.000 0.835
2 6.00 1500.03 472 894 0.740 10000.000 0.000 0.610 15000.000 0.000 0.835
3 9.00 1500.03 439 975 0.740 10000.000 0.000 0.610 15000.000 0.000 0.835
4 12.00 1500.03 418 995 0.740 10000.000 0.000 0.610 15000.000 0.000 0.835
5 15.00 1500.03 453 949 0.740 10000.000 0.000 0.610 15000.000 0.000 0.835
6 18.00 1500.03 399 854 0.740 10000.000 0.000 0.610 15000.000 0.000 0.835
7 21.00 1500.03 460 821 0.740 10000.000 0.000 0.610 15000.000 0.000 0.835
8 24.00 1500.03 469 836 0.740 10000.000 0.000 0.610 15000.000 0.000 0.835
9 27.00 1500.03 445 796 0.740 10000.000 0.000 0.610 15000.000 0.000 0.835
10 30.00 1500.03 450 808 0.740 10000.000 0.000 0.610 15000.000 0.000 0.835
11 33.00 1500.03 487 808 0.740 10000.000 0.000 0.610 15000.000 0.000 0.835
12 36.00 1500.03 425 849 0.740 10000.000 0.000 0.610 15000.000 0.000 0.835
13 39.00 1500.03 476 836 0.740 10000.000 0.000 0.610 15000.000 0.000 0.835
14 42.00 1500.03 493 840 0.740 10000.000 0.000 0.610 15000.000 0.000 0.835
15 45.00 1500.03 478 792 0.740 10000.000 0.000 0.610 15000.000 0.000 0.835
16 48.00 1500.03 474 920 0.740 10000.000 0.000 0.610 15000.000 0.000 0.835
17 51.00 1500.03 476 899 0.740 10000.000 0.000 0.610 15000.000 0.000 0.835
18 54.00 1500.03 474 942 0.740 10000.000 0.000 0.610 15000.000 0.000 0.835
19 57.00 1500.03 422 962 0.740 10000.000 0.000 0.610 15000.000 0.000 0.835
20 60.00 1500.03 452 961 0.740 10000.000 0.000 0.610 15000.000 0.000 0.835
21 63.00 1500.03 447 888 0.740 10000.000 0.000 0.610 15000.000 0.000 0.835
22 66.00 1500.03 452 872 0.740 10000.000 0.000 0.610 15000.000 0.000 0.835
23 69.00 1500.03 424 825 0.740 10000.000 0.000 0.610 15000.000 0.000 0.835
24 72.00 1500.03 449 820 0.740 10000.000 0.000 0.610 15000.000 0.000 0.835
25 75.00 1500.03 526 853 0.740 10000.000 0.000 0.610 15000.000 0.000 0.835
26 78.00 1500.03 451 865 0.740 10000.000 0.000 0.610 15000.000 0.000 0.835
27 81.00 1500.03 497 913 0.740 10000.000 0.000 0.610 15000.000 0.000 0.835
28 84.00 1500.03 536 959 0.740 10000.000 0.000 0.610 15000.000 0.000 0.835
29 87.00 1500.03 497 943 0.740 10000.000 0.000 0.610 15000.000 0.000 0.835
30 90.00 1500.03 514 954 0.740 10000.000 0.000 0.610 15000.000 0.000 0.835
31 93.00 1500.03 481 891 0.740 10000.000 0.000 0.610 15000.000 0.000 0.835
32 96.00 1500.03 480 850 0.740 10000.000 0.000 0.610 15000.000 0.000 0.835
33 99.00 1500.03 463 840 0.740 10000.000 0.000 0.610 15000.000 0.000 0.835
34 102.00 1500.03 489 867 0.740 10000.000 0.000 0.610 15000.000 0.000 0.835
35 105.00 1500.03 425 798 0.740 10000.000 0.000 0.610 15000.000 0.000 0.835
36 108.00 1500.03 509 822 0.740 10000.000 0.000 0.610 15000.000 0.000 0.835
37 111.00 1500.03 436 847 0.740 10000.000 0.000 0.610 15000.000 0.000 0.835
38 114.00 1500.03 467 830 0.740 10000.000 0.000 0.610 15000.000 0.000 0.835
39 117.00 1500.03 454 877 0.740 10000.000 0.000 0.610 15000.000 0.000 0.835
40 120.00 1500.03 464 850 0.740 10000.000 0.000 0.610 15000.000 0.000 0.835
41 123.00 1500.03 481 926 0.740 10000.000 0.000 0.610 15000.000 0.000 0.835
42 126.00 1500.03 478 891 0.740 10000.000 0.000 0.610 15000.000 0.000 0.835
43 129.00 1500.03 471 885 0.740 10000.000 0.000 0.610 15000.000 0.000 0.835
44 132.00 1500.03 492 865 0.740 10000.000 0.000 0.610 15000.000 0.000 0.835
45 135.00 1500.03 440 838 0.740 10000.000 0.000 0.610 15000.000 0.000 0.835
46 138.00 1500.03 433 788 0.740 10000.000 0.000 0.610 15000.000 0.000 0.835
47 141.00 1500.03 450 797 0.740 10000.000 0.000 0.610 15000.000 0.000 0.835
48 144.00 1500.03 438 833 0.740 10000.000 0.000 0.610 15000.000 0.000 0.835
49 147.00 1500.03 465 823 0.740 10000.000 0.000 0.610 15000.000 0.000 0.835
50 150.00 1500.03 450 798 0.740 10000.000 0.000 0.610 15000.000 0.000 0.835
51 153.00 1500.03 425 860 0.740 10000.000 0.000 0.610 15000.000 0.000 0.835
52 156.00 1500.03 445 821 0.740 10000.000 0.000 0.610 15000.000 0.000 0.835
53 159.00 1500.03 445 766 0.740 10000.000 0.000 0.610 15000.000 0.000 0.835
54 162.00 1500.03 456 854 0.740 10000.000 0.000 0.610 15000.000 0.000 0.835
55 165.00 1500.03 453 846 0.740 10000.000 0.000 0.610 15000.000 0.000 0.835
56 168.00 1500.03 459 838 0.740 10000.000 0.000 0.610 15000.000 0.000 0.835
57 171.00 1500.03 486 830 0.740 10000.000 0.000 0.610 15000.000 0.000 0.835
58 174.00 1500.03 450 871 0.740 10000.000 0.000 0.610 15000.000 0.000 0.835
59 177.00 1500.03 473 870 0.740 10000.000 0.000 0.610 15000.000 0.000 0.835
60 180.00 1500.03 445 886 0.740 10000.000 0.000 0.610 15000.000 0.000 0.835
61 183.00 1500.03 437 822 0.740 10000.000 0.000 0.610 15000.000 0.000 0.835
62 186.00 1500.03 495 864 0.740 10000.000 0.000 0.610 15000.000 0.000 0.835
63 189.00 1500.03 432 828 0.740 10000.000 0.000 0.610 15000.000 0.000 0.835
64 192.00 1500.03 418 812 0.740 10000.000 0.000 0.610 15000.000 0.000 0.835
65 195.00 1500.03 449 794 0.740 10000.000 0.000 0.610 15000.000 0.000 0.835
66 198.00 1500.03 412 841 0.740 10000.000 0.000 0.610 15000.000 0.000 0.835
67 201.00 1500.03 454 904 0.740 10000.000 0.000 0.610 15000.000 0.000 0.835
68 204.00 1500.03 442 953 0.740 10000.000 0.000 0.610 15000.000 0.000 0.835
69 207.00 1500.03 455 1016 0.740 10000.000 0.000 0.610 15000.000 0.000 0.835
70 210.00 1500.03 459 1006 0.740 10000.000 0.000 0.610 15000.000 0.000 0.835
71 213.00 1500.03 445 922 0.740 10000.000 0.000 0.610 15000.000 0.000 0.835
72 216.00 1500.03 440 898 0.740 10000.000 0.000 0.610 15000.000 0.000 0.835
73 219.00 1500.03 455 903 0.740 10000.000 0.000 0.610 15000.000 0.000 0.835
74 222.00 1500.03 440 824 0.740 10000.000 0.000 0.610 15000.000 0.000 0.835
75 225.00 1500.03 441 808 0.740 10000.000 0.000 0.610 15000.000 0.000 0.835
76 228.00 1500.03 495 798 0.740 10000.000 0.000 0.610 15000.000 0.000 0.835
77 231.00 1500.03 483 843 0.740 10000.000 0.000 0.610 15000.000 0.000 0.835
78 234.00 1500.03 485 914 0.740 10000.000 0.000 0.610 15000.000 0.000 0.835
79 237.00 1500.03 455 964 0.740 10000.000 0.000 0.610 15000.000 0.000 0.835
80 240.00 1500.03 455 1094 0.740 10000.000 0.000 0.610 15000.000 0.000 0.835
81 243.00 1500.03 490 1060 0.740 10000.000 0.000 0.610 15000.000 0.000 0.835
82 246.00 1500.03 549 1138 0.740 10000.000 0.000 0.610 15000.000 0.000 0.835
83 249.00 1500.03 460 1133 0.740 10000.000 0.000 0.610 15000.000 0.000 0.835
84 252.00 1500.03 512 1190 0.740 10000.000 0.000 0.610 15000.000 0.000 0.835
85 255.00 1500.03 438 1100 0.740 10000.000 0.000 0.610 15000.000 0.000 0.835
86 258.00 1500.03 441 999 0.740 10000.000 0.000 0.610 15000.000 0.000 0.835
87 261.00 1500.03 491 906 0.740 10000.000 0.000 0.610 15000.000 0.000 0.835
88 264.00 1500.03 417 869 0.740 10000.000 0.000 0.610 15000.000 0.000 0.835
89 267.00 1500.03 481 817 0.740 10000.000 0.000 0.610 15000.000 0.000 0.835
90 270.00 1500.03 483 879 0.740 10000.000 0.000 0.610 15000.000 0.000 0.835
91 273.00 1500.03 487 890 0.740 10000.000 0.000 0.610 15000.000 0.000 0.835
92 276.00 1500.03 537 889 0.740 10000.000 0.000 0.610 15000.000 0.000 0.835
93 279.00 1500.03 486 884 0.740 10000.000 0.000 0.610 15000.000 0.000 0.835
94 282.00 1500.03 482 991 0.740 10000.000 0.000 0.610 15000.000 0.000 0.835
95 285.00 1500.03 469 1000 0.740 10000.000 0.000 0.610 15000.000 0.000 0.835
96 288.00 1500.03 434 965 0.740 10000.000 0.000 0.610 15000.000 0.000 0.835
97 291.00 1500.03 462 876 0.740 10000.000 0.000 0.610 15000.000 0.000 0.835
98 294.00 1500.03 400 876 0.740 10000.000 0.000 0.610 15000.000 0.000 0.835
99 297.00 1500.03 461 872 0.740 10000.000 0.000 0.610 15000.000 0.000 0.835
100 300.00 1500.03 432 908 0.740 10000.000 0.000 0.610 15000.000 0.000 0.835
101 303.00 1500.03 442 808 0.740 10000.000 0.000 0.610 15000.000 0.000 0.835
102 306.00 1500.03 427 811 0.740 10000.000 0.000 0.610 15000.000 0.000 0.835
103 309.00 1500.03 441 841 0.740 10000.000 0.000 0.610 15000.000 0.000 0.835
104 312.00 1500.03 460 859 0.740 10000.000 0.000 0.610 15000.000 0.000 0.835
105 315.00 1500.03 451 849 0.740 10000.000 0.000 0.610 15000.000 0.000 0.835
106 318.00 1500.03 487 922 0.740 10000.000 0.000 0.610 15000.000 0.000 0.835
107 321.00 1500.03 455 896 0.740 10000.000 0.000 0.610 15000.000 0.000 0.835
108 324.00 1500.03 492 912 0.740 10000.000 0.000 0.610 15000.000 0.000 0.835
109 327.00 1500.03 424 882 0.740 10000.000 0.000 0.610 15000.000 0.000 0.835
110 330.00 1500.03 469 824 0.740 10000.000 0.000 0.610 15000.000 0.000 0.835
111 333.00 1500.03 451 813 0.740 10000.000 0.000 0.610 15000.000 0.000 0.835
112 336.00 1500.03 420 828 0.740 10000.000 0.000 0.610 15000.000 0.000 0.835
113 339.00 1500.03 483 841 0.740 10000.000 0.000 0.610 15000.000 0.000 0.835
114 342.00 1500.03 484 838 0.740 10000.000 0.000 0.610 15000.000 0.000 0.835
115 345.00 1500.03 463 828 0.740 10000.000 0.000 0.610 15000.000 0.000 0.835
116 348.00 1500.03 475 845 0.740 10000.000 0.000 0.610 15000.000 0.000 0.835
117 351.00 1500.03 443 886 0.740 10000.000 0.000 0.610 15000.000 0.000 0.835
118 354.00 1500.03 476 823 0.740 10000.000 0.000 0.610 15000.000 0.000 0.835
119 357.00 1500.03 454 818 0.740 10000.000 0.000 0.610 15000.000 0.000 0.835
120 360.00 1500.03 452 831 0.740 10000.000 0.000 0.610 15000.000 0.000 0.835
121 363.00 1500.03 505 834 0.740 10000.000 0.000 0.610 15000.000 0.000 0.835
122 366.00 1500.03 439 877 0.740 10000.000 0.000 0.610 15000.000 0.000 0.835
123 369.00 1500.03 499 834 0.740 10000.000 0.000 0.610 15000.000 0.000 0.835
124 372.00 1500.03 484 839 0.740 10000.000 0.000 0.610 15000.000 0.000 0.835
125 375.00 1500.03 437 873 0.740 10000.000 0.000 0.610 15000.000 0.000 0.835
126 378.00 1500.03 459 890 0.740 10000.000 0.000 0.610 15000.000 0.000 0.835
127 381.00 1500.03 462 880 0.740 10000.000 0.000 0.610 15000.000 0.000 0.835
128 384.00 1500.03 463 837 0.740 10000.000 0.000 0.610 15000.000 0.000 0.835
129 387.00 1500.03 475 858 0.740 10000.000 0.000 0.610 15000.000 0.000 0.835
130 390.00 1500.03 468 862 0.740 10000.000 0.000 0.610 15000.000 0.000 0.835
131 393.00 1500.03 448 848 0.740 10000.000 0.000 0.610 15000.000 0.000 0.835
132 396.00 1500.03 477 856 0.740 10000.000 0.000 0.610 15000.000 0.000 0.835
133 399.00 1500.03 426 881 0.740 10000.000 0.000 0.610 15000.000 0.000 0.835
134 402.00 1500.03 443 955 0.740 10000.000 0.000 0.610 15000.000 0.000 0.835
135 405.00 1500.03 432 918 0.740 10000.000 0.000 0.610 15000.000 0.000 0.835
136 408.00 1500.03 456 996 0.740 10000.000 0.000 0.610 15000.000 0.000 0.835
137 411.00 1500.03 461 928 0.740 10000.000 0.000 0.610 15000.000 0.000 0.835
138 414.00 1500.03 475 928 0.740 10000.000 0.000 0.610 15000.000 0.000 0.835
139 417.00 1500.03 473 933 0.740 10000.000 0.000 0.610 15000.000 0.000 0.835
140 420.00 1500.03 472 900 0.740 10000.000 0.000 0.610 15000.000 0.000 0.835
141 423.00 1500.03 430 795 0.740 10000.000 0.000 0.610 15000.000 0.000 0.835
142 426.00 1500.03 473 774 0.740 10000.000 0.000 0.610 15000.000 0.000 0.835
143 429.00 1500.03 448 810 0.740 10000.000 0.000 0.610 15000.000 0.000 0.835
144 432.00 1500.03 461 852 0.740 10000.000 0.000 0.610 15000.000 0.000 0.835
