# BinNR microsec tot-time (s)  O-Beam AUX Ampl_1(V) f_1(Hz) phase_1(deg) Ampl_2(V) f_2(Hz) phase_2(deg) chi(pos)
0 0.00 1500.00 374 831 0.740 10000.000 0.000 0.610 15000.000 0.000 0.330
1 3.00 1500.00 809 1652 0.740 10000.000 0.000 0.610 15000.000 0.000 0.330
2 6.00 1500.00 825 1751 0.740 10000.000 0.000 0.610 15000.000 0.000 0.330
3 9.00 1500.00 815 1682 0.740 10000.000 0.000 0.610 15000.000 0.000 0.330
4 12.00 1500.00 830 1763 0.740 10000.000 0.000 0.610 15000.000 0.000 0.330
5 15.00 1500.00 802 1582 0.740 10000.000 0.000 0.610 15000.000 0.000 0.330
6 18.00 1500.00 750 1718 0.740 10000.000 0.000 0.610 15000.000 0.000 0.330
7 21.00 1500.00 802 1638 0.740 10000.000 0.000 0.610 15000.000 0.000 0.330
8 24.00 1500.00 837 1647 0.740 10000.000 0.000 0.610 15000.000 0.000 0.330
9 27.00 1500.00 811 1595 0.740 10000.000 0.000 0.610 15000.000 0.000 0.330
10 30.00 1500.00 803 1666 0.740 10000.000 0.000 0.610 15000.000 0.000 0.330
11 33.00 1500.00 802 1625 0.740 10000.000 0.000 0.610 15000.000 0.000 0.330
12 36.00 1500.00 859 1586 0.740 10000.000 0.000 0.610 15000.000 0.000 0.330
13 39.00 1500.00 809 1588 0.740 10000.000 0.000 0.610 15000.000 0.000 0.330
14 42.00 1500.00 802 1614 0.740 10000.000 0.000 0.610 15000.000 0.000 0.330
15 45.00 1500.00 803 1603 0.740 10000.000 0.000 0.610 15000.000 0.000 0.330
16 48.00 1500.00 789 1589 0.740 10000.000 0.000 0.610 15000.000 0.000 0.330
17 51.00 1500.00 784 1624 0.740 10000.000 0.000 0.610 15000.000 0.000 0.330
18 54.00 1500.00 780 1689 0.740 10000.000 0.000 0.610 15000.000 0.000 0.330
19 57.00 1500.00 782 1644 0.740 10000.000 0.000 0.610 15000.000 0.000 0.330
20 60.00 1500.00 794 1732 0.740 10000.000 0.000 0.610 15000.000 0.000 0.330
21 63.00 1500.00 801 1640 0.740 10000.000 0.000 0.610 15000.000 0.000 0.330
22 66.00 1500.00 785 1641 0.740 10000.000 0.000 0.610 15000.000 0.000 0.330
23 69.00 1500.00 823 1747 0.740 10000.000 0.000 0.610 15000.000 0.000 0.330
24 72.00 1500.00 897 1660 0.740 10000.000 0.000 0.610 15000.000 0.000 0.330
25 75.00 1500.00 779 1613 0.740 10000.000 0.000 0.610 15000.000 0.000 0.330
26 78.00 1500.00 860 1625 0.740 10000.000 0.000 0.610 15000.000 0.000 0.330
27 81.00 1500.00 773 1633 0.740 10000.000 0.000 0.610 15000.000 0.000 0.330
28 84.00 1500.00 845 1678 0.740 10000.000 0.000 0.610 15000.000 0.000 0.330
29 87.00 1500.00 783 1662 0.740 10000.000 0.000 0.610 15000.000 0.000 0.330
30 90.00 1500.00 853 1685 0.740 10000.000 0.000 0.610 15000.000 0.000 0.330
31 93.00 1500.00 803 1691 0.740 10000.000 0.000 0.610 15000.000 0.000 0.330
32 96.00 1500.00 829 1640 0.740 10000.000 0.000 0.610 15000.000 0.000 0.330
33 99.00 1500.00 781 1688 0.740 10000.000 0.000 0.610 15000.000 0.000 0.330
34 102.00 1500.00 776 1658 0.740 10000.000 0.000 0.610 15000.000 0.000 0.330
35 105.00 1500.00 739 1605 0.740 10000.000 0.000 0.610 15000.000 0.000 0.330
36 108.00 1500.00 872 1677 0.740 10000.000 0.000 0.610 15000.000 0.000 0.330
37 111.00 1500.00 797 1578 0.740 10000.000 0.000 0.610 15000.000 0.000 0.330
38 114.00 1500.00 814 1636 0.740 10000.000 0.000 0.610 15000.000 0.000 0.330
39 117.00 1500.00 820 1639 0.740 10000.000 0.000 0.610 15000.000 0.000 0.330
40 120.00 1500.00 782 1665 0.740 10000.000 0.000 0.610 15000.000 0.000 0.330
41 123.00 1500.00 788 1576 0.740 10000.000 0.000 0.610 15000.000 0.000 0.330
42 126.00 1500.00 806 1714 0.740 10000.000 0.000 0.610 15000.000 0.000 0.330
43 129.00 1500.00 836 1647 0.740 10000.000 0.000 0.610 15000.000 0.000 0.330
44 132.00 1500.00 856 1643 0.740 10000.000 0.000 0.610 15000.000 0.000 0.330
45 135.00 1500.00 817 1678 0.740 10000.000 0.000 0.610 15000.000 0.000 0.330
46 138.00 1500.00 772 1603 0.740 10000.000 0.000 0.610 15000.000 0.000 0.330
47 141.00 1500.00 809 1577 0.740 10000.000 0.000 0.610 15000.000 0.000 0.330
48 144.00 1500.00 858 1601 0.740 10000.000 0.000 0.610 15000.000 0.000 0.330
49 147.00 1500.00 790 1562 0.740 10000.000 0.000 0.610 15000.000 0.000 0.330
50 150.00 1500.00 809 1625 0.740 10000.000 0.000 0.610 15000.000 0.000 0.330
51 153.00 1500.00 783 1585 0.740 10000.000 0.000 0.610 15000.000 0.000 0.330
52 156.00 1500.00 858 1618 0.740 10000.000 0.000 0.610 15000.000 0.000 0.330
53 159.00 1500.00 839 1581 0.740 10000.000 0.000 0.610 15000.000 0.000 0.330
54 162.00 1500.00 817 1676 0.740 10000.000 0.000 0.610 15000.000 0.000 0.330
55 165.00 1500.00 861 1567 0.740 10000.000 0.000 0.610 15000.000 0.000 0.330
56 168.00 1500.00 780 1666 0.740 10000.000 0.000 0.610 15000.000 0.000 0.330
57 171.00 1500.00 789 1656 0.740 10000.000 0.000 0.610 15000.000 0.000 0.330
58 174.00 1500.00 822 1659 0.740 10000.000 0.000 0.610 15000.000 0.000 0.330
59 177.00 1500.00 812 1722 0.740 10000.000 0.000 0.610 15000.000 0.000 0.330
60 180.00 1500.00 771 1612 0.740 10000.000 0.000 0.610 15000.000 0.000 0.330
61 183.00 1500.00 876 1655 0.740 10000.000 0.000 0.610 15000.000 0.000 0.330
62 186.00 1500.00 836 1617 0.740 10000.000 0.000 0.610 15000.000 0.000 0.330
63 189.00 1500.00 823 1569 0.740 10000.000 0.000 0.610 15000.000 0.000 0.330
64 192.00 1500.00 843 1719 0.740 10000.000 0.000 0.610 15000.000 0.000 0.330
65 195.00 1500.00 808 1623 0.740 10000.000 0.000 0.610 15000.000 0.000 0.330
66 198.00 1500.00 828 1641 0.740 10000.000 0.000 0.610 15000.000 0.000 0.330
67 201.00 1500.00 773 1607 0.740 10000.000 0.000 0.610 15000.000 0.000 0.330
68 204.00 1500.00 798 1629 0.740 10000.000 0.000 0.610 15000.000 0.000 0.330
69 207.00 1500.00 831 1651 0.740 10000.000 0.000 0.610 15000.000 0.000 0.330
70 210.00 1500.00 842 1619 0.740 10000.000 0.000 0.610 15000.000 0.000 0.330
71 213.00 1500.00 781 1747 0.740 10000.000 0.000 0.610 15000.000 0.000 0.330
72 216.00 1500.00 800 1745 0.740 10000.000 0.000 0.610 15000.000 0.000 0.330
73 219.00 1500.00 843 1706 0.740 10000.000 0.000 0.610 15000.000 0.000 0.330
74 222.00 1500.00 834 1630 0.740 10000.000 0.000 0.610 15000.000 0.000 0.330
75 225.00 1500.00 814 1614 0.740 10000.000 0.000 0.610 15000.000 0.000 0.330
76 228.00 1500.00 813 1575 0.740 10000.000 0.000 0.610 15000.000 0.000 0.330
77 231.00 1500.00 826 1591 0.740 10000.000 0.000 0.610 15000.000 0.000 0.330
78 234.00 1500.00 853 1604 0.740 10000.000 0.000 0.610 15000.000 0.000 0.330
79 237.00 1500.00 745 1616 0.740 10000.000 0.000 0.610 15000.000 0.000 0.330
80 240.00 1500.00 837 1754 0.740 10000.000 0.000 0.610 15000.000 0.000 0.330
81 243.00 1500.00 815 1779 0.740 10000.000 0.000 0.610 15000.000 0.000 0.330
82 246.00 1500.00 808 1741 0.740 10000.000 0.000 0.610 15000.000 0.000 0.330
83 249.00 1500.00 788 1797 0.740 10000.000 0.000 0.610 15000.000 0.000 0.330
84 252.00 1500.00 773 1784 0.740 10000.000 0.000 0.610 15000.000 0.000 0.330
85 255.00 1500.00 787 1704 0.740 10000.000 0.000 0.610 15000.000 0.000 0.330
86 258.00 1500.00 795 1646 0.740 10000.000 0.000 0.610 15000.000 0.000 0.330
87 261.00 1500.00 845 1691 0.740 10000.000 0.000 0.610 15000.000 0.000 0.330
88 264.00 1500.00 832 1688 0.740 10000.000 0.000 0.610 15000.000 0.000 0.330
89 267.00 1500.00 801 1558 0.740 10000.000 0.000 0.610 15000.000 0.000 0.330
90 270.00 1500.00 796 1729 0.740 10000.000 0.000 0.610 15000.000 0.000 0.330
91 273.00 1500.00 785 1617 0.740 10000.000 0.000 0.610 15000.000 0.000 0.330
92 276.00 1500.00 811 1585 0.740 10000.000 0.000 0.610 15000.000 0.000 0.330
93 279.00 1500.00 750 1599 0.740 10000.000 0.000 0.610 15000.000 0.000 0.330
94 282.00 1500.00 841 1769 0.740 10000.000 0.000 0.610 15000.000 0.000 0.330
95 285.00 1500.00 785 1668 0.740 10000.000 0.000 0.610 15000.000 0.000 0.330
96 288.00 1500.00 821 1642 0.740 10000.000 0.000 0.610 15000.000 0.000 0.330
97 291.00 1500.00 822 1653 0.740 10000.000 0.000 0.610 15000.000 0.000 0.330
98 294.00 1500.00 844 1646 0.740 10000.000 0.000 0.610 15000.000 0.000 0.330
99 297.00 1500.00 733 1606 0.740 10000.000 0.000 0.610 15000.000 0.000 0.330
100 300.00 1500.00 813 1706 0.740 10000.000 0.000 0.610 15000.000 0.000 0.330
101 303.00 1500.00 784 1558 0.740 10000.000 0.000 0.610 15000.000 0.000 0.330
102 306.00 1500.00 823 1572 0.740 10000.000 0.000 0.610 15000.000 0.000 0.330
103 309.00 1500.00 817 1597 0.740 10000.000 0.000 0.610 15000.000 0.000 0.330
104 312.00 1500.00 803 1666 0.740 10000.000 0.000 0.610 15000.000 0.000 0.330
105 315.00 1500.00 758 1604 0.740 10000.000 0.000 0.610 15000.000 0.000 0.330
106 318.00 1500.00 781 1658 0.740 10000.000 0.000 0.610 15000.000 0.000 0.330
107 321.00 1500.00 829 1682 0.740 10000.000 0.000 0.610 15000.000 0.000 0.330
108 324.00 1500.00 793 1627 0.740 10000.000 0.000 0.610 15000.000 0.000 0.330
109 327.00 1500.00 815 1648 0.740 10000.000 0.000 0.610 15000.000 0.000 0.330
110 330.00 1500.00 880 1587 0.740 10000.000 0.000 0.610 15000.000 0.000 0.330
111 333.00 1500.00 795 1588 0.740 10000.000 0.000 0.610 15000.000 0.000 0.330
112 336.00 1500.00 866 1671 0.740 10000.000 0.000 0.610 15000.000 0.000 0.330
113 339.00 1500.00 792 1635 0.740 10000.000 0.000 0.610 15000.000 0.000 0.330
114 342.00 1500.00 807 1656 0.740 10000.000 0.000 0.610 15000.000 0.000 0.330
115 345.00 1500.00 846 1641 0.740 10000.000 0.000 0.610 15000.000 0.000 0.330
116 348.00 1500.00 840 1705 0.740 10000.000 0.000 0.610 15000.000 0.000 0.330
117 351.00 1500.00 822 1609 0.740 10000.000 0.000 0.610 15000.000 0.000 0.330
118 354.00 1500.00 813 1544 0.740 10000.000 0.000 0.610 15000.000 0.000 0.330
119 357.00 1500.00 754 1642 0.740 10000.000 0.000 0.610 15000.000 0.000 0.330
120 360.00 1500.00 837 1658 0.740 10000.000 0.000 0.610 15000.000 0.000 0.330
121 363.00 1500.00 704 1585 0.740 10000.000 0.000 0.610 15000.000 0.000 0.330
122 366.00 1500.00 767 1654 0.740 10000.000 0.000 0.610 15000.000 0.000 0.330
123 369.00 1500.00 760 1656 0.740 10000.000 0.000 0.610 15000.000 0.000 0.330
124 372.00 1500.00 764 1624 0.740 10000.000 0.000 0.610 15000.000 0.000 0.330
125 375.00 1500.00 795 1619 0.740 10000.000 0.000 0.610 15000.000 0.000 0.330
126 378.00 1500.00 792 1720 0.740 10000.000 0.000 0.610 15000.000 0.000 0.330
127 381.00 1500.00 790 1623 0.740 10000.000 0.000 0.610 15000.000 0.000 0.330
128 384.00 1500.00 843 1646 0.740 10000.000 0.000 0.610 15000.000 0.000 0.330
129 387.00 1500.00 758 1576 0.740 10000.000 0.000 0.610 15000.000 0.000 0.330
130 390.00 1500.00 808 1664 0.740 10000.000 0.000 0.610 15000.000 0.000 0.330
131 393.00 1500.00 854 1624 0.740 10000.000 0.000 0.610 15000.000 0.000 0.330
132 396.00 1500.00 814 1712 0.740 10000.000 0.000 0.610 15000.000 0.000 0.330
133 399.00 1500.00 817 1523 0.740 10000.000 0.000 0.610 15000.000 0.000 0.330
134 402.00 1500.00 817 1677 0.740 10000.000 0.000 0.610 15000.000 0.000 0.330
135 405.00 1500.00 795 1700 0.740 10000.000 0.000 0.610 15000.000 0.000 0.330
136 408.00 1500.00 814 1643 0.740 10000.000 0.000 0.610 15000.000 0.000 0.330
137 411.00 1500.00 778 1613 0.740 10000.000 0.000 0.610 15000.000 0.000 0.330
138 414.00 1500.00 837 1686 0.740 10000.000 0.000 0.610 15000.000 0.000 0.330
139 417.00 1500.00 789 1657 0.740 10000.000 0.000 0.610 15000.000 0.000 0.330
140 420.00 1500.00 790 1701 0.740 10000.000 0.000 0.610 15000.000 0.000 0.330
141 423.00 1500.00 764 1621 0.740 10000.000 0.000 0.610 15000.000 0.000 0.330
142 426.00 1500.00 853 1660 0.740 10000.000 0.000 0.610 15000.000 0.000 0.330
143 429.00 1500.00 821 1567 0.740 10000.000 0.000 0.610 15000.000 0.000 0.330
144 432.00 1500.00 835 1591 0.740 10000.000 0.000 0.610 15000.000 0.000 0.330
