# BinNR microsec tot-time (s)  O-Beam AUX Ampl_1(V) f_1(Hz) phase_1(deg) Ampl_2(V) f_2(Hz) phase_2(deg) chi(pos)
0 0.00 1500.00 327 1121 0.740 10000.000 0.000 0.610 15000.000 0.000 -0.835
1 3.00 1500.00 715 2267 0.740 10000.000 0.000 0.610 15000.000 0.000 -0.835
2 6.00 1500.00 681 2244 0.740 10000.000 0.000 0.610 15000.000 0.000 -0.835
3 9.00 1500.00 721 2233 0.740 10000.000 0.000 0.610 15000.000 0.000 -0.835
4 12.00 1500.00 753 2286 0.740 10000.000 0.000 0.610 15000.000 0.000 -0.835
5 15.00 1500.00 670 2231 0.740 10000.000 0.000 0.610 15000.000 0.000 -0.835
6 18.00 1500.00 673 2202 0.740 10000.000 0.000 0.610 15000.000 0.000 -0.835
7 21.00 1500.00 666 2112 0.740 10000.000 0.000 0.610 15000.000 0.000 -0.835
8 24.00 1500.00 651 2281 0.740 10000.000 0.000 0.610 15000.000 0.000 -0.835
9 27.00 1500.00 701 2185 0.740 10000.000 0.000 0.610 15000.000 0.000 -0.835
10 30.00 1500.00 690 2328 0.740 10000.000 0.000 0.610 15000.000 0.000 -0.835
11 33.00 1500.00 751 2117 0.740 10000.000 0.000 0.610 15000.000 0.000 -0.835
12 36.00 1500.00 696 2286 0.740 10000.000 0.000 0.610 15000.000 0.000 -0.835
13 39.00 1500.00 702 2144 0.740 10000.000 0.000 0.610 15000.000 0.000 -0.835
14 42.00 1500.00 743 2204 0.740 10000.000 0.000 0.610 15000.000 0.000 -0.835
15 45.00 1500.00 691 2288 0.740 10000.000 0.000 0.610 15000.000 0.000 -0.835
16 48.00 1500.00 738 2146 0.740 10000.000 0.000 0.610 15000.000 0.000 -0.835
17 51.00 1500.00 692 2207 0.740 10000.000 0.000 0.610 15000.000 0.000 -0.835
18 54.00 1500.00 706 2206 0.740 10000.000 0.000 0.610 15000.000 0.000 -0.835
19 57.00 1500.00 664 2147 0.740 10000.000 0.000 0.610 15000.000 0.000 -0.835
20 60.00 1500.00 690 2131 0.740 10000.000 0.000 0.610 15000.000 0.000 -0.835
21 63.00 1500.00 668 2181 0.740 10000.000 0.000 0.610 15000.000 0.000 -0.835
22 66.00 1500.00 704 2200 0.740 10000.000 0.000 0.610 15000.000 0.000 -0.835
23 69.00 1500.00 705 2195 0.740 10000.000 0.000 0.610 15000.000 0.000 -0.835
24 72.00 1500.00 671 2297 0.740 10000.000 0.000 0.610 15000.000 0.000 -0.835
25 75.00 1500.00 722 2169 0.740 10000.000 0.000 0.610 15000.000 0.000 -0.835
26 78.00 1500.00 730 2304 0.740 10000.000 0.000 0.610 15000.000 0.000 -0.835
27 81.00 1500.00 776 2198 0.740 10000.000 0.000 0.610 15000.000 0.000 -0.835
28 84.00 1500.00 680 2288 0.740 10000.000 0.000 0.610 15000.000 0.000 -0.835
29 87.00 1500.00 730 2222 0.740 10000.000 0.000 0.610 15000.000 0.000 -0.835
30 90.00 1500.00 749 2272 0.740 10000.000 0.000 0.610 15000.000 0.000 -0.835
31 93.00 1500.00 701 2206 0.740 10000.000 0.000 0.610 15000.000 0.000 -0.835
32 96.00 1500.00 712 2260 0.740 10000.000 0.000 0.610 15000.000 0.000 -0.835
33 99.00 1500.00 708 2165 0.740 10000.000 0.000 0.610 15000.000 0.000 -0.835
34 102.00 1500.00 720 2195 0.740 10000.000 0.000 0.610 15000.000 0.000 -0.835
35 105.00 1500.00 703 2208 0.740 10000.000 0.000 0.610 15000.000 0.000 -0.835
36 108.00 1500.00 692 2198 0.740 10000.000 0.000 0.610 15000.000 0.000 -0.835
37 111.00 1500.00 699 2222 0.740 10000.000 0.000 0.610 15000.000 0.000 -0.835
38 114.00 1500.00 704 2223 0.740 10000.000 0.000 0.610 15000.000 0.000 -0.835
39 117.00 1500.00 722 2231 0.740 10000.000 0.000 0.610 15000.000 0.000 -0.835
40 120.00 1500.00 725 2309 0.740 10000.000 0.000 0.610 15000.000 0.000 -0.835
41 123.00 1500.00 657 2199 0.740 10000.000 0.000 0.610 15000.000 0.000 -0.835
42 126.00 1500.00 708 2222 0.740 10000.000 0.000 0.610 15000.000 0.000 -0.835
43 129.00 1500.00 729 2187 0.740 10000.000 0.000 0.610 15000.000 0.000 -0.835
44 132.00 1500.00 691 2233 0.740 10000.000 0.000 0.610 15000.000 0.000 -0.835
45 135.00 1500.00 695 2215 0.740 10000.000 0.000 0.610 15000.000 0.000 -0.835
46 138.00 1500.00 726 2228 0.740 10000.000 0.000 0.610 15000.000 0.000 -0.835
47 141.00 1500.00 637 2137 0.740 10000.000 0.000 0.610 15000.000 0.000 -0.835
48 144.00 1500.00 671 2294 0.740 10000.000 0.000 0.610 15000.000 0.000 -0.835
49 147.00 1500.00 673 2230 0.740 10000.000 0.000 0.610 15000.000 0.000 -0.835
50 150.00 1500.00 718 2202 0.740 10000.000 0.000 0.610 15000.000 0.000 -0.835
51 153.00 1500.00 735 2196 0.740 10000.000 0.000 0.610 15000.000 0.000 -0.835
52 156.00 1500.00 742 2301 0.740 10000.000 0.000 0.610 15000.000 0.000 -0.835
53 159.00 1500.00 696 2173 0.740 10000.000 0.000 0.610 15000.000 0.000 -0.835
54 162.00 1500.00 650 2246 0.740 10000.000 0.000 0.610 15000.000 0.000 -0.835
55 165.00 1500.00 708 2259 0.740 10000.000 0.000 0.610 15000.000 0.000 -0.835
56 168.00 1500.00 735 2217 0.740 10000.000 0.000 0.610 15000.000 0.000 -0.835
57 171.00 1500.00 676 2201 0.740 10000.000 0.000 0.610 15000.000 0.000 -0.835
58 174.00 1500.00 691 2176 0.740 10000.000 0.000 0.610 15000.000 0.000 -0.835
59 177.00 1500.00 704 2158 0.740 10000.000 0.000 0.610 15000.000 0.000 -0.835
60 180.00 1500.00 718 2255 0.740 10000.000 0.000 0.610 15000.000 0.000 -0.835
61 183.00 1500.00 692 2171 0.740 10000.000 0.000 0.610 15000.000 0.000 -0.835
62 186.00 1500.00 694 2237 0.740 10000.000 0.000 0.610 15000.000 0.000 -0.835
63 189.00 1500.00 668 2177 0.740 10000.000 0.000 0.610 15000.000 0.000 -0.835
64 192.00 1500.00 710 2172 0.740 10000.000 0.000 0.610 15000.000 0.000 -0.835
65 195.00 1500.00 756 2203 0.740 10000.000 0.000 0.610 15000.000 0.000 -0.835
66 198.00 1500.00 705 2267 0.740 10000.000 0.000 0.610 15000.000 0.000 -0.835
67 201.00 1500.00 652 2130 0.740 10000.000 0.000 0.610 15000.000 0.000 -0.835
68 204.00 1500.00 687 2238 0.740 10000.000 0.000 0.610 15000.000 0.000 -0.835
69 207.00 1500.00 684 2135 0.740 10000.000 0.000 0.610 15000.000 0.000 -0.835
70 210.00 1500.00 669 2281 0.740 10000.000 0.000 0.610 15000.000 0.000 -0.835
71 213.00 1500.00 673 2217 0.740 10000.000 0.000 0.610 15000.000 0.000 -0.835
72 216.00 1500.00 723 2221 0.740 10000.000 0.000 0.610 15000.000 0.000 -0.835
73 219.00 1500.00 748 2212 0.740 10000.000 0.000 0.610 15000.000 0.000 -0.835
74 222.00 1500.00 711 2142 0.740 10000.000 0.000 0.610 15000.000 0.000 -0.835
75 225.00 1500.00 713 2263 0.740 10000.000 0.000 0.610 15000.000 0.000 -0.835
76 228.00 1500.00 678 2299 0.740 10000.000 0.000 0.610 15000.000 0.000 -0.835
77 231.00 1500.00 661 2213 0.740 10000.000 0.000 0.610 15000.000 0.000 -0.835
78 234.00 1500.00 701 2257 0.740 10000.000 0.000 0.610 15000.000 0.000 -0.835
79 237.00 1500.00 693 2165 0.740 10000.000 0.000 0.610 15000.000 0.000 -0.835
80 240.00 1500.00 678 2189 0.740 10000.000 0.000 0.610 15000.000 0.000 -0.835
81 243.00 1500.00 719 2206 0.740 10000.000 0.000 0.610 15000.000 0.000 -0.835
82 246.00 1500.00 736 2339 0.740 10000.000 0.000 0.610 15000.000 0.000 -0.835
83 249.00 1500.00 658 2250 0.740 10000.000 0.000 0.610 15000.000 0.000 -0.835
84 252.00 1500.00 708 2142 0.740 10000.000 0.000 0.610 15000.000 0.000 -0.835
85 255.00 1500.00 704 2196 0.740 10000.000 0.000 0.610 15000.000 0.000 -0.835
86 258.00 1500.00 738 2231 0.740 10000.000 0.000 0.610 15000.000 0.000 -0.835
87 261.00 1500.00 714 2194 0.740 10000.000 0.000 0.610 15000.000 0.000 -0.835
88 264.00 1500.00 714 2220 0.740 10000.000 0.000 0.610 15000.000 0.000 -0.835
89 267.00 1500.00 645 2129 0.740 10000.000 0.000 0.610 15000.000 0.000 -0.835
90 270.00 1500.00 725 2166 0.740 10000.000 0.000 0.610 15000.000 0.000 -0.835
91 273.00 1500.00 682 2206 0.740 10000.000 0.000 0.610 15000.000 0.000 -0.835
92 276.00 1500.00 715 2227 0.740 10000.000 0.000 0.610 15000.000 0.000 -0.835
93 279.00 1500.00 690 2245 0.740 10000.000 0.000 0.610 15000.000 0.000 -0.835
94 282.00 1500.00 733 2210 0.740 10000.000 0.000 0.610 15000.000 0.000 -0.835
95 285.00 1500.00 690 2227 0.740 10000.000 0.000 0.610 15000.000 0.000 -0.835
96 288.00 1500.00 677 2246 0.740 10000.000 0.000 0.610 15000.000 0.000 -0.835
97 291.00 1500.00 664 2196 0.740 10000.000 0.000 0.610 15000.000 0.000 -0.835
98 294.00 1500.00 687 2202 0.740 10000.000 0.000 0.610 15000.000 0.000 -0.835
99 297.00 1500.00 698 2281 0.740 10000.000 0.000 0.610 15000.000 0.000 -0.835
100 300.00 1500.00 725 2121 0.740 10000.000 0.000 0.610 15000.000 0.000 -0.835
101 303.00 1500.00 713 2225 0.740 10000.000 0.000 0.610 15000.000 0.000 -0.835
102 306.00 1500.00 717 2197 0.740 10000.000 0.000 0.610 15000.000 0.000 -0.835
103 309.00 1500.00 736 2188 0.740 10000.000 0.000 0.610 15000.000 0.000 -0.835
104 312.00 1500.00 713 2286 0.740 10000.000 0.000 0.610 15000.000 0.000 -0.835
105 315.00 1500.00 689 2234 0.740 10000.000 0.000 0.610 15000.000 0.000 -0.835
106 318.00 1500.00 705 2200 0.740 10000.000 0.000 0.610 15000.000 0.000 -0.835
107 321.00 1500.00 712 2111 0.740 10000.000 0.000 0.610 15000.000 0.000 -0.835
108 324.00 1500.00 695 2249 0.740 10000.000 0.000 0.610 15000.000 0.000 -0.835
109 327.00 1500.00 744 2172 0.740 10000.000 0.000 0.610 15000.000 0.000 -0.835
110 330.00 1500.00 750 2328 0.740 10000.000 0.000 0.610 15000.000 0.000 -0.835
111 333.00 1500.00 710 2209 0.740 10000.000 0.000 0.610 15000.000 0.000 -0.835
112 336.00 1500.00 691 2334 0.740 10000.000 0.000 0.610 15000.000 0.000 -0.835
113 339.00 1500.00 686 2217 0.740 10000.000 0.000 0.610 15000.000 0.000 -0.835
114 342.00 1500.00 731 2186 0.740 10000.000 0.000 0.610 15000.000 0.000 -0.835
115 345.00 1500.00 685 2241 0.740 10000.000 0.000 0.610 15000.000 0.000 -0.835
116 348.00 1500.00 697 2193 0.740 10000.000 0.000 0.610 15000.000 0.000 -0.835
117 351.00 1500.00 753 2267 0.740 10000.000 0.000 0.610 15000.000 0.000 -0.835
118 354.00 1500.00 666 2240 0.740 10000.000 0.000 0.610 15000.000 0.000 -0.835
119 357.00 1500.00 736 2218 0.740 10000.000 0.000 0.610 15000.000 0.000 -0.835
120 360.00 1500.00 717 2217 0.740 10000.000 0.000 0.610 15000.000 0.000 -0.835
121 363.00 1500.00 708 2243 0.740 10000.000 0.000 0.610 15000.000 0.000 -0.835
122 366.00 1500.00 706 2243 0.740 10000.000 0.000 0.610 15000.000 0.000 -0.835
123 369.00 1500.00 716 2149 0.740 10000.000 0.000 0.610 15000.000 0.000 -0.835
124 372.00 1500.00 701 2275 0.740 10000.000 0.000 0.610 15000.000 0.000 -0.835
125 375.00 1500.00 678 2173 0.740 10000.000 0.000 0.610 15000.000 0.000 -0.835
126 378.00 1500.00 690 2224 0.740 10000.000 0.000 0.610 15000.000 0.000 -0.835
127 381.00 1500.00 713 2152 0.740 10000.000 0.000 0.610 15000.000 0.000 -0.835
128 384.00 1500.00 697 2208 0.740 10000.000 0.000 0.610 15000.000 0.000 -0.835
129 387.00 1500.00 662 2271 0.740 10000.000 0.000 0.610 15000.000 0.000 -0.835
130 390.00 1500.00 710 2215 0.740 10000.000 0.000 0.610 15000.000 0.000 -0.835
131 393.00 1500.00 694 2122 0.740 10000.000 0.000 0.610 15000.000 0.000 -0.835
132 396.00 1500.00 747 2262 0.740 10000.000 0.000 0.610 15000.000 0.000 -0.835
133 399.00 1500.00 693 2185 0.740 10000.000 0.000 0.610 15000.000 0.000 -0.835
134 402.00 1500.00 698 2127 0.740 10000.000 0.000 0.610 15000.000 0.000 -0.835
135 405.00 1500.00 698 2263 0.740 10000.000 0.000 0.610 15000.000 0.000 -0.835
136 408.00 1500.00 682 2233 0.740 10000.000 0.000 0.610 15000.000 0.000 -0.835
137 411.00 1500.00 696 2209 0.740 10000.000 0.000 0.610 15000.000 0.000 -0.835
138 414.00 1500.00 698 2262 0.740 10000.000 0.000 0.610 15000.000 0.000 -0.835
139 417.00 1500.00 698 2151 0.740 10000.000 0.000 0.610 15000.000 0.000 -0.835
140 420.00 1500.00 729 2294 0.740 10000.000 0.000 0.610 15000.000 0.000 -0.835
141 423.00 1500.00 693 2229 0.740 10000.000 0.000 0.610 15000.000 0.000 -0.835
142 426.00 1500.00 682 2230 0.740 10000.000 0.000 0.610 15000.000 0.000 -0.835
143 429.00 1500.00 686 2143 0.740 10000.000 0.000 0.610 15000.000 0.000 -0.835
144 432.00 1500.00 669 2187 0.740 10000.000 0.000 0.610 15000.000 0.000 -0.835
