# BinNR microsec tot-time (s)  O-Beam AUX Ampl_1(V) f_1(Hz) phase_1(deg) Ampl_2(V) f_2(Hz) phase_2(deg) chi(pos)
0 0.00 1500.00 316 421 0.740 10000.000 0.000 0.610 15000.000 0.000 -1.505
1 3.00 1500.00 596 937 0.740 10000.000 0.000 0.610 15000.000 0.000 -1.505
2 6.00 1500.00 626 955 0.740 10000.000 0.000 0.610 15000.000 0.000 -1.505
3 9.00 1500.00 570 975 0.740 10000.000 0.000 0.610 15000.000 0.000 -1.505
4 12.00 1500.00 559 979 0.740 10000.000 0.000 0.610 15000.000 0.000 -1.505
5 15.00 1500.00 600 882 0.740 10000.000 0.000 0.610 15000.000 0.000 -1.505
6 18.00 1500.00 547 903 0.740 10000.000 0.000 0.610 15000.000 0.000 -1.505
7 21.00 1500.00 596 791 0.740 10000.000 0.000 0.610 15000.000 0.000 -1.505
8 24.00 1500.00 560 840 0.740 10000.000 0.000 0.610 15000.000 0.000 -1.505
9 27.00 1500.00 589 774 0.740 10000.000 0.000 0.610 15000.000 0.000 -1.505
10 30.00 1500.00 601 826 0.740 10000.000 0.000 0.610 15000.000 0.000 -1.505
11 33.00 1500.00 563 830 0.740 10000.000 0.000 0.610 15000.000 0.000 -1.505
12 36.00 1500.00 581 817 0.740 10000.000 0.000 0.610 15000.000 0.000 -1.505
13 39.00 1500.00 543 834 0.740 10000.000 0.000 0.610 15000.000 0.000 -1.505
14 42.00 1500.00 609 882 0.740 10000.000 0.000 0.610 15000.000 0.000 -1.505
15 45.00 1500.00 592 845 0.740 10000.000 0.000 0.610 15000.000 0.000 -1.505
16 48.00 1500.00 604 876 0.740 10000.000 0.000 0.610 15000.000 0.000 -1.505
17 51.00 1500.00 612 895 0.740 10000.000 0.000 0.610 15000.000 0.000 -1.505
18 54.00 1500.00 587 978 0.740 10000.000 0.000 0.610 15000.000 0.000 -1.505
19 57.00 1500.00 552 929 0.740 10000.000 0.000 0.610 15000.000 0.000 -1.505
20 60.00 1500.00 616 873 0.740 10000.000 0.000 0.610 15000.000 0.000 -1.505
21 63.00 1500.00 587 892 0.740 10000.000 0.000 0.610 15000.000 0.000 -1.505
22 66.00 1500.00 589 861 0.740 10000.000 0.000 0.610 15000.000 0.000 -1.505
23 69.00 1500.00 565 845 0.740 10000.000 0.000 0.610 15000.000 0.000 -1.505
24 72.00 1500.00 627 866 0.740 10000.000 0.000 0.610 15000.000 0.000 -1.505
25 75.00 1500.00 567 821 0.740 10000.000 0.000 0.610 15000.000 0.000 -1.505
26 78.00 1500.00 615 886 0.740 10000.000 0.000 0.610 15000.000 0.000 -1.505
27 81.00 1500.00 626 939 0.740 10000.000 0.000 0.610 15000.000 0.000 -1.505
28 84.00 1500.00 600 990 0.740 10000.000 0.000 0.610 15000.000 0.000 -1.505
29 87.00 1500.00 613 946 0.740 10000.000 0.000 0.610 15000.000 0.000 -1.505
30 90.00 1500.00 656 954 0.740 10000.000 0.000 0.610 15000.000 0.000 -1.505
31 93.00 1500.00 623 912 0.740 10000.000 0.000 0.610 15000.000 0.000 -1.505
32 96.00 1500.00 566 869 0.740 10000.000 0.000 0.610 15000.000 0.000 -1.505
33 99.00 1500.00 600 922 0.740 10000.000 0.000 0.610 15000.000 0.000 -1.505
34 102.00 1500.00 550 864 0.740 10000.000 0.000 0.610 15000.000 0.000 -1.505
35 105.00 1500.00 573 836 0.740 10000.000 0.000 0.610 15000.000 0.000 -1.505
36 108.00 1500.00 615 880 0.740 10000.000 0.000 0.610 15000.000 0.000 -1.505
37 111.00 1500.00 579 824 0.740 10000.000 0.000 0.610 15000.000 0.000 -1.505
38 114.00 1500.00 562 841 0.740 10000.000 0.000 0.610 15000.000 0.000 -1.505
39 117.00 1500.00 592 796 0.740 10000.000 0.000 0.610 15000.000 0.000 -1.505
40 120.00 1500.00 593 837 0.740 10000.000 0.000 0.610 15000.000 0.000 -1.505
41 123.00 1500.00 605 927 0.740 10000.000 0.000 0.610 15000.000 0.000 -1.505
42 126.00 1500.00 591 907 0.740 10000.000 0.000 0.610 15000.000 0.000 -1.505
43 129.00 1500.00 574 873 0.740 10000.000 0.000 0.610 15000.000 0.000 -1.505
44 132.00 1500.00 617 882 0.740 10000.000 0.000 0.610 15000.000 0.000 -1.505
45 135.00 1500.00 546 825 0.740 10000.000 0.000 0.610 15000.000 0.000 -1.505
46 138.00 1500.00 616 828 0.740 10000.000 0.000 0.610 15000.000 0.000 -1.505
47 141.00 1500.00 570 830 0.740 10000.000 0.000 0.610 15000.000 0.000 -1.505
48 144.00 1500.00 577 865 0.740 10000.000 0.000 0.610 15000.000 0.000 -1.505
49 147.00 1500.00 581 840 0.740 10000.000 0.000 0.610 15000.000 0.000 -1.505
50 150.00 1500.00 575 865 0.740 10000.000 0.000 0.610 15000.000 0.000 -1.505
51 153.00 1500.00 565 795 0.740 10000.000 0.000 0.610 15000.000 0.000 -1.505
52 156.00 1500.00 623 815 0.740 10000.000 0.000 0.610 15000.000 0.000 -1.505
53 159.00 1500.00 582 846 0.740 10000.000 0.000 0.610 15000.000 0.000 -1.505
54 162.00 1500.00 606 878 0.740 10000.000 0.000 0.610 15000.000 0.000 -1.505
55 165.00 1500.00 559 846 0.740 10000.000 0.000 0.610 15000.000 0.000 -1.505
56 168.00 1500.00 589 856 0.740 10000.000 0.000 0.610 15000.000 0.000 -1.505
57 171.00 1500.00 622 795 0.740 10000.000 0.000 0.610 15000.000 0.000 -1.505
58 174.00 1500.00 574 861 0.740 10000.000 0.000 0.610 15000.000 0.000 -1.505
59 177.00 1500.00 588 846 0.740 10000.000 0.000 0.610 15000.000 0.000 -1.505
60 180.00 1500.00 577 889 0.740 10000.000 0.000 0.610 15000.000 0.000 -1.505
61 183.00 1500.00 571 810 0.740 10000.000 0.000 0.610 15000.000 0.000 -1.505
62 186.00 1500.00 581 824 0.740 10000.000 0.000 0.610 15000.000 0.000 -1.505
63 189.00 1500.00 575 817 0.740 10000.000 0.000 0.610 15000.000 0.000 -1.505
64 192.00 1500.00 556 827 0.740 10000.000 0.000 0.610 15000.000 0.000 -1.505
65 195.00 1500.00 604 857 0.740 10000.000 0.000 0.610 15000.000 0.000 -1.505
66 198.00 1500.00 585 815 0.740 10000.000 0.000 0.610 15000.000 0.000 -1.505
67 201.00 1500.00 617 909 0.740 10000.000 0.000 0.610 15000.000 0.000 -1.505
68 204.00 1500.00 590 900 0.740 10000.000 0.000 0.610 15000.000 0.000 -1.505
69 207.00 1500.00 543 943 0.740 10000.000 0.000 0.610 15000.000 0.000 -1.505
70 210.00 1500.00 623 961 0.740 10000.000 0.000 0.610 15000.000 0.000 -1.505
71 213.00 1500.00 538 937 0.740 10000.000 0.000 0.610 15000.000 0.000 -1.505
72 216.00 1500.00 601 972 0.740 10000.000 0.000 0.610 15000.000 0.000 -1.505
73 219.00 1500.00 576 884 0.740 10000.000 0.000 0.610 15000.000 0.000 -1.505
74 222.00 1500.00 565 887 0.740 10000.000 0.000 0.610 15000.000 0.000 -1.505
75 225.00 1500.00 600 801 0.740 10000.000 0.000 0.610 15000.000 0.000 -1.505
76 228.00 1500.00 604 849 0.740 10000.000 0.000 0.610 15000.000 0.000 -1.505
77 231.00 1500.00 581 877 0.740 10000.000 0.000 0.610 15000.000 0.000 -1.505
78 234.00 1500.00 544 884 0.740 10000.000 0.000 0.610 15000.000 0.000 -1.505
79 237.00 1500.00 629 1020 0.740 10000.000 0.000 0.610 15000.000 0.000 -1.505
80 240.00 1500.00 608 1074 0.740 10000.000 0.000 0.610 15000.000 0.000 -1.505
81 243.00 1500.00 581 1127 0.740 10000.000 0.000 0.610 15000.000 0.000 -1.505
82 246.00 1500.00 588 1119 0.740 10000.000 0.000 0.610 15000.000 0.000 -1.505
83 249.00 1500.00 579 1162 0.740 10000.000 0.000 0.610 15000.000 0.000 -1.505
84 252.00 1500.00 592 1173 0.740 10000.000 0.000 0.610 15000.000 0.000 -1.505
85 255.00 1500.00 628 1108 0.740 10000.000 0.000 0.610 15000.000 0.000 -1.505
86 258.00 1500.00 606 1002 0.740 10000.000 0.000 0.610 15000.000 0.000 -1.505
87 261.00 1500.00 559 883 0.740 10000.000 0.000 0.610 15000.000 0.000 -1.505
88 264.00 1500.00 625 863 0.740 10000.000 0.000 0.610 15000.000 0.000 -1.505
89 267.00 1500.00 579 748 0.740 10000.000 0.000 0.610 15000.000 0.000 -1.505
90 270.00 1500.00 608 861 0.740 10000.000 0.000 0.610 15000.000 0.000 -1.505
91 273.00 1500.00 635 801 0.740 10000.000 0.000 0.610 15000.000 0.000 -1.505
92 276.00 1500.00 656 908 0.740 10000.000 0.000 0.610 15000.000 0.000 -1.505
93 279.00 1500.00 564 872 0.740 10000.000 0.000 0.610 15000.000 0.000 -1.505
94 282.00 1500.00 583 961 0.740 10000.000 0.000 0.610 15000.000 0.000 -1.505
95 285.00 1500.00 614 961 0.740 10000.000 0.000 0.610 15000.000 0.000 -1.505
96 288.00 1500.00 594 934 0.740 10000.000 0.000 0.610 15000.000 0.000 -1.505
97 291.00 1500.00 589 917 0.740 10000.000 0.000 0.610 15000.000 0.000 -1.505
98 294.00 1500.00 598 940 0.740 10000.000 0.000 0.610 15000.000 0.000 -1.505
99 297.00 1500.00 524 886 0.740 10000.000 0.000 0.610 15000.000 0.000 -1.505
100 300.00 1500.00 591 833 0.740 10000.000 0.000 0.610 15000.000 0.000 -1.505
101 303.00 1500.00 590 842 0.740 10000.000 0.000 0.610 15000.000 0.000 -1.505
102 306.00 1500.00 603 827 0.740 10000.000 0.000 0.610 15000.000 0.000 -1.505
103 309.00 1500.00 547 782 0.740 10000.000 0.000 0.610 15000.000 0.000 -1.505
104 312.00 1500.00 546 831 0.740 10000.000 0.000 0.610 15000.000 0.000 -1.505
105 315.00 1500.00 580 815 0.740 10000.000 0.000 0.610 15000.000 0.000 -1.505
106 318.00 1500.00 633 849 0.740 10000.000 0.000 0.610 15000.000 0.000 -1.505
107 321.00 1500.00 555 843 0.740 10000.000 0.000 0.610 15000.000 0.000 -1.505
108 324.00 1500.00 606 872 0.740 10000.000 0.000 0.610 15000.000 0.000 -1.505
109 327.00 1500.00 563 862 0.740 10000.000 0.000 0.610 15000.000 0.000 -1.505
110 330.00 1500.00 590 816 0.740 10000.000 0.000 0.610 15000.000 0.000 -1.505
111 333.00 1500.00 508 884 0.740 10000.000 0.000 0.610 15000.000 0.000 -1.505
112 336.00 1500.00 590 856 0.740 10000.000 0.000 0.610 15000.000 0.000 -1.505
113 339.00 1500.00 572 811 0.740 10000.000 0.000 0.610 15000.000 0.000 -1.505
114 342.00 1500.00 560 856 0.740 10000.000 0.000 0.610 15000.000 0.000 -1.505
115 345.00 1500.00 611 820 0.740 10000.000 0.000 0.610 15000.000 0.000 -1.505
116 348.00 1500.00 581 807 0.740 10000.000 0.000 0.610 15000.000 0.000 -1.505
117 351.00 1500.00 618 841 0.740 10000.000 0.000 0.610 15000.000 0.000 -1.505
118 354.00 1500.00 595 821 0.740 10000.000 0.000 0.610 15000.000 0.000 -1.505
119 357.00 1500.00 566 808 0.740 10000.000 0.000 0.610 15000.000 0.000 -1.505
120 360.00 1500.00 613 856 0.740 10000.000 0.000 0.610 15000.000 0.000 -1.505
121 363.00 1500.00 587 829 0.740 10000.000 0.000 0.610 15000.000 0.000 -1.505
122 366.00 1500.00 625 864 0.740 10000.000 0.000 0.610 15000.000 0.000 -1.505
123 369.00 1500.00 632 924 0.740 10000.000 0.000 0.610 15000.000 0.000 -1.505
124 372.00 1500.00 525 830 0.740 10000.000 0.000 0.610 15000.000 0.000 -1.505
125 375.00 1500.00 561 812 0.740 10000.000 0.000 0.610 15000.000 0.000 -1.505
126 378.00 1500.00 595 861 0.740 10000.000 0.000 0.610 15000.000 0.000 -1.505
127 381.00 1500.00 590 809 0.740 10000.000 0.000 0.610 15000.000 0.000 -1.505
128 384.00 1500.00 594 829 0.740 10000.000 0.000 0.610 15000.000 0.000 -1.505
129 387.00 1500.00 585 836 0.740 10000.000 0.000 0.610 15000.000 0.000 -1.505
130 390.00 1500.00 567 863 0.740 10000.000 0.000 0.610 15000.000 0.000 -1.505
131 393.00 1500.00 574 781 0.740 10000.000 0.000 0.610 15000.000 0.000 -1.505
132 396.00 1500.00 602 830 0.740 10000.000 0.000 0.610 15000.000 0.000 -1.505
133 399.00 1500.00 544 863 0.740 10000.000 0.000 0.610 15000.000 0.000 -1.505
134 402.00 1500.00 592 919 0.740 10000.000 0.000 0.610 15000.000 0.000 -1.505
135 405.00 1500.00 596 951 0.740 10000.000 0.000 0.610 15000.000 0.000 -1.505
136 408.00 1500.00 597 991 0.740 10000.000 0.000 0.610 15000.000 0.000 -1.505
137 411.00 1500.00 575 912 0.740 10000.000 0.000 0.610 15000.000 0.000 -1.505
138 414.00 1500.00 591 923 0.740 10000.000 0.000 0.610 15000.000 0.000 -1.505
139 417.00 1500.00 551 942 0.740 10000.000 0.000 0.610 15000.000 0.000 -1.505
140 420.00 1500.00 578 885 0.740 10000.000 0.000 0.610 15000.000 0.000 -1.505
141 423.00 1500.00 535 871 0.740 10000.000 0.000 0.610 15000.000 0.000 -1.505
142 426.00 1500.00 564 814 0.740 10000.000 0.000 0.610 15000.000 0.000 -1.505
143 429.00 1500.00 559 796 0.740 10000.000 0.000 0.610 15000.000 0.000 -1.505
144 432.00 1500.00 587 896 0.740 10000.000 0.000 0.610 15000.000 0.000 -1.505
