# BinNR microsec tot-time (s)  O-Beam AUX Ampl_1(V) f_1(Hz) phase_1(deg) Ampl_2(V) f_2(Hz) phase_2(deg) chi(pos)
0 0.00 1500.00 310 476 0.740 10000.000 0.000 0.610 15000.000 0.000 0.505
1 3.00 1500.00 581 1009 0.740 10000.000 0.000 0.610 15000.000 0.000 0.505
2 6.00 1500.00 642 1090 0.740 10000.000 0.000 0.610 15000.000 0.000 0.505
3 9.00 1500.00 590 1058 0.740 10000.000 0.000 0.610 15000.000 0.000 0.505
4 12.00 1500.00 622 1015 0.740 10000.000 0.000 0.610 15000.000 0.000 0.505
5 15.00 1500.00 565 1056 0.740 10000.000 0.000 0.610 15000.000 0.000 0.505
6 18.00 1500.00 625 930 0.740 10000.000 0.000 0.610 15000.000 0.000 0.505
7 21.00 1500.00 595 964 0.740 10000.000 0.000 0.610 15000.000 0.000 0.505
8 24.00 1500.00 620 943 0.740 10000.000 0.000 0.610 15000.000 0.000 0.505
9 27.00 1500.00 588 900 0.740 10000.000 0.000 0.610 15000.000 0.000 0.505
10 30.00 1500.00 578 852 0.740 10000.000 0.000 0.610 15000.000 0.000 0.505
11 33.00 1500.00 587 860 0.740 10000.000 0.000 0.610 15000.000 0.000 0.505
12 36.00 1500.00 598 844 0.740 10000.000 0.000 0.610 15000.000 0.000 0.505
13 39.00 1500.00 600 866 0.740 10000.000 0.000 0.610 15000.000 0.000 0.505
14 42.00 1500.00 616 921 0.740 10000.000 0.000 0.610 15000.000 0.000 0.505
15 45.00 1500.00 577 923 0.740 10000.000 0.000 0.610 15000.000 0.000 0.505
16 48.00 1500.00 635 918 0.740 10000.000 0.000 0.610 15000.000 0.000 0.505
17 51.00 1500.00 607 967 0.740 10000.000 0.000 0.610 15000.000 0.000 0.505
18 54.00 1500.00 671 1013 0.740 10000.000 0.000 0.610 15000.000 0.000 0.505
19 57.00 1500.00 578 1045 0.740 10000.000 0.000 0.610 15000.000 0.000 0.505
20 60.00 1500.00 636 988 0.740 10000.000 0.000 0.610 15000.000 0.000 0.505
21 63.00 1500.00 565 952 0.740 10000.000 0.000 0.610 15000.000 0.000 0.505
22 66.00 1500.00 617 922 0.740 10000.000 0.000 0.610 15000.000 0.000 0.505
23 69.00 1500.00 623 863 0.740 10000.000 0.000 0.610 15000.000 0.000 0.505
24 72.00 1500.00 602 876 0.740 10000.000 0.000 0.610 15000.000 0.000 0.505
25 75.00 1500.00 599 850 0.740 10000.000 0.000 0.610 15000.000 0.000 0.505
26 78.00 1500.00 697 908 0.740 10000.000 0.000 0.610 15000.000 0.000 0.505
27 81.00 1500.00 650 1003 0.740 10000.000 0.000 0.610 15000.000 0.000 0.505
28 84.00 1500.00 640 1006 0.740 10000.000 0.000 0.610 15000.000 0.000 0.505
29 87.00 1500.00 613 946 0.740 10000.000 0.000 0.610 15000.000 0.000 0.505
30 90.00 1500.00 611 1028 0.740 10000.000 0.000 0.610 15000.000 0.000 0.505
31 93.00 1500.00 605 960 0.740 10000.000 0.000 0.610 15000.000 0.000 0.505
32 96.00 1500.00 601 1014 0.740 10000.000 0.000 0.610 15000.000 0.000 0.505
33 99.00 1500.00 591 946 0.740 10000.000 0.000 0.610 15000.000 0.000 0.505
34 102.00 1500.00 579 868 0.740 10000.000 0.000 0.610 15000.000 0.000 0.505
35 105.00 1500.00 522 925 0.740 10000.000 0.000 0.610 15000.000 0.000 0.505
36 108.00 1500.00 607 867 0.740 10000.000 0.000 0.610 15000.000 0.000 0.505
37 111.00 1500.00 594 894 0.740 10000.000 0.000 0.610 15000.000 0.000 0.505
38 114.00 1500.00 696 856 0.740 10000.000 0.000 0.610 15000.000 0.000 0.505
39 117.00 1500.00 572 904 0.740 10000.000 0.000 0.610 15000.000 0.000 0.505
40 120.00 1500.00 637 951 0.740 10000.000 0.000 0.610 15000.000 0.000 0.505
41 123.00 1500.00 567 938 0.740 10000.000 0.000 0.610 15000.000 0.000 0.505
42 126.00 1500.00 597 973 0.740 10000.000 0.000 0.610 15000.000 0.000 0.505
43 129.00 1500.00 644 921 0.740 10000.000 0.000 0.610 15000.000 0.000 0.505
44 132.00 1500.00 586 883 0.740 10000.000 0.000 0.610 15000.000 0.000 0.505
45 135.00 1500.00 563 911 0.740 10000.000 0.000 0.610 15000.000 0.000 0.505
46 138.00 1500.00 608 960 0.740 10000.000 0.000 0.610 15000.000 0.000 0.505
47 141.00 1500.00 556 935 0.740 10000.000 0.000 0.610 15000.000 0.000 0.505
48 144.00 1500.00 569 913 0.740 10000.000 0.000 0.610 15000.000 0.000 0.505
49 147.00 1500.00 547 939 0.740 10000.000 0.000 0.610 15000.000 0.000 0.505
50 150.00 1500.00 623 906 0.740 10000.000 0.000 0.610 15000.000 0.000 0.505
51 153.00 1500.00 578 924 0.740 10000.000 0.000 0.610 15000.000 0.000 0.505
52 156.00 1500.00 629 944 0.740 10000.000 0.000 0.610 15000.000 0.000 0.505
53 159.00 1500.00 594 859 0.740 10000.000 0.000 0.610 15000.000 0.000 0.505
54 162.00 1500.00 601 954 0.740 10000.000 0.000 0.610 15000.000 0.000 0.505
55 165.00 1500.00 601 982 0.740 10000.000 0.000 0.610 15000.000 0.000 0.505
56 168.00 1500.00 595 1009 0.740 10000.000 0.000 0.610 15000.000 0.000 0.505
57 171.00 1500.00 576 954 0.740 10000.000 0.000 0.610 15000.000 0.000 0.505
58 174.00 1500.00 584 948 0.740 10000.000 0.000 0.610 15000.000 0.000 0.505
59 177.00 1500.00 584 913 0.740 10000.000 0.000 0.610 15000.000 0.000 0.505
60 180.00 1500.00 578 939 0.740 10000.000 0.000 0.610 15000.000 0.000 0.505
61 183.00 1500.00 567 951 0.740 10000.000 0.000 0.610 15000.000 0.000 0.505
62 186.00 1500.00 598 970 0.740 10000.000 0.000 0.610 15000.000 0.000 0.505
63 189.00 1500.00 550 898 0.740 10000.000 0.000 0.610 15000.000 0.000 0.505
64 192.00 1500.00 579 895 0.740 10000.000 0.000 0.610 15000.000 0.000 0.505
65 195.00 1500.00 641 903 0.740 10000.000 0.000 0.610 15000.000 0.000 0.505
66 198.00 1500.00 628 950 0.740 10000.000 0.000 0.610 15000.000 0.000 0.505
67 201.00 1500.00 607 985 0.740 10000.000 0.000 0.610 15000.000 0.000 0.505
68 204.00 1500.00 598 1027 0.740 10000.000 0.000 0.610 15000.000 0.000 0.505
69 207.00 1500.00 546 1038 0.740 10000.000 0.000 0.610 15000.000 0.000 0.505
70 210.00 1500.00 595 1050 0.740 10000.000 0.000 0.610 15000.000 0.000 0.505
71 213.00 1500.00 610 1026 0.740 10000.000 0.000 0.610 15000.000 0.000 0.505
72 216.00 1500.00 621 981 0.740 10000.000 0.000 0.610 15000.000 0.000 0.505
73 219.00 1500.00 577 983 0.740 10000.000 0.000 0.610 15000.000 0.000 0.505
74 222.00 1500.00 583 901 0.740 10000.000 0.000 0.610 15000.000 0.000 0.505
75 225.00 1500.00 600 868 0.740 10000.000 0.000 0.610 15000.000 0.000 0.505
76 228.00 1500.00 593 871 0.740 10000.000 0.000 0.610 15000.000 0.000 0.505
77 231.00 1500.00 609 865 0.740 10000.000 0.000 0.610 15000.000 0.000 0.505
78 234.00 1500.00 587 929 0.740 10000.000 0.000 0.610 15000.000 0.000 0.505
79 237.00 1500.00 574 1014 0.740 10000.000 0.000 0.610 15000.000 0.000 0.505
80 240.00 1500.00 584 1058 0.740 10000.000 0.000 0.610 15000.000 0.000 0.505
81 243.00 1500.00 585 1102 0.740 10000.000 0.000 0.610 15000.000 0.000 0.505
82 246.00 1500.00 636 1227 0.740 10000.000 0.000 0.610 15000.000 0.000 0.505
83 249.00 1500.00 557 1228 0.740 10000.000 0.000 0.610 15000.000 0.000 0.505
84 252.00 1500.00 650 1175 0.740 10000.000 0.000 0.610 15000.000 0.000 0.505
85 255.00 1500.00 602 1110 0.740 10000.000 0.000 0.610 15000.000 0.000 0.505
86 258.00 1500.00 637 1039 0.740 10000.000 0.000 0.610 15000.000 0.000 0.505
87 261.00 1500.00 628 1023 0.740 10000.000 0.000 0.610 15000.000 0.000 0.505
88 264.00 1500.00 648 917 0.740 10000.000 0.000 0.610 15000.000 0.000 0.505
89 267.00 1500.00 592 829 0.740 10000.000 0.000 0.610 15000.000 0.000 0.505
90 270.00 1500.00 606 870 0.740 10000.000 0.000 0.610 15000.000 0.000 0.505
91 273.00 1500.00 595 935 0.740 10000.000 0.000 0.610 15000.000 0.000 0.505
92 276.00 1500.00 632 989 0.740 10000.000 0.000 0.610 15000.000 0.000 0.505
93 279.00 1500.00 611 932 0.740 10000.000 0.000 0.610 15000.000 0.000 0.505
94 282.00 1500.00 616 1028 0.740 10000.000 0.000 0.610 15000.000 0.000 0.505
95 285.00 1500.00 595 1015 0.740 10000.000 0.000 0.610 15000.000 0.000 0.505
96 288.00 1500.00 627 1011 0.740 10000.000 0.000 0.610 15000.000 0.000 0.505
97 291.00 1500.00 647 974 0.740 10000.000 0.000 0.610 15000.000 0.000 0.505
98 294.00 1500.00 593 1021 0.740 10000.000 0.000 0.610 15000.000 0.000 0.505
99 297.00 1500.00 545 945 0.740 10000.000 0.000 0.610 15000.000 0.000 0.505
100 300.00 1500.00 593 924 0.740 10000.000 0.000 0.610 15000.000 0.000 0.505
101 303.00 1500.00 593 948 0.740 10000.000 0.000 0.610 15000.000 0.000 0.505
102 306.00 1500.00 601 894 0.740 10000.000 0.000 0.610 15000.000 0.000 0.505
103 309.00 1500.00 643 944 0.740 10000.000 0.000 0.610 15000.000 0.000 0.505
104 312.00 1500.00 628 982 0.740 10000.000 0.000 0.610 15000.000 0.000 0.505
105 315.00 1500.00 579 930 0.740 10000.000 0.000 0.610 15000.000 0.000 0.505
106 318.00 1500.00 578 899 0.740 10000.000 0.000 0.610 15000.000 0.000 0.505
107 321.00 1500.00 595 949 0.740 10000.000 0.000 0.610 15000.000 0.000 0.505
108 324.00 1500.00 617 910 0.740 10000.000 0.000 0.610 15000.000 0.000 0.505
109 327.00 1500.00 636 907 0.740 10000.000 0.000 0.610 15000.000 0.000 0.505
110 330.00 1500.00 611 968 0.740 10000.000 0.000 0.610 15000.000 0.000 0.505
111 333.00 1500.00 630 905 0.740 10000.000 0.000 0.610 15000.000 0.000 0.505
112 336.00 1500.00 621 909 0.740 10000.000 0.000 0.610 15000.000 0.000 0.505
113 339.00 1500.00 611 919 0.740 10000.000 0.000 0.610 15000.000 0.000 0.505
114 342.00 1500.00 556 917 0.740 10000.000 0.000 0.610 15000.000 0.000 0.505
115 345.00 1500.00 552 871 0.740 10000.000 0.000 0.610 15000.000 0.000 0.505
116 348.00 1500.00 627 925 0.740 10000.000 0.000 0.610 15000.000 0.000 0.505
117 351.00 1500.00 605 869 0.740 10000.000 0.000 0.610 15000.000 0.000 0.505
118 354.00 1500.00 582 957 0.740 10000.000 0.000 0.610 15000.000 0.000 0.505
119 357.00 1500.00 590 875 0.740 10000.000 0.000 0.610 15000.000 0.000 0.505
120 360.00 1500.00 596 906 0.740 10000.000 0.000 0.610 15000.000 0.000 0.505
121 363.00 1500.00 595 934 0.740 10000.000 0.000 0.610 15000.000 0.000 0.505
122 366.00 1500.00 624 979 0.740 10000.000 0.000 0.610 15000.000 0.000 0.505
123 369.00 1500.00 576 890 0.740 10000.000 0.000 0.610 15000.000 0.000 0.505
124 372.00 1500.00 616 984 0.740 10000.000 0.000 0.610 15000.000 0.000 0.505
125 375.00 1500.00 585 920 0.740 10000.000 0.000 0.610 15000.000 0.000 0.505
126 378.00 1500.00 580 967 0.740 10000.000 0.000 0.610 15000.000 0.000 0.505
127 381.00 1500.00 649 860 0.740 10000.000 0.000 0.610 15000.000 0.000 0.505
128 384.00 1500.00 595 951 0.740 10000.000 0.000 0.610 15000.000 0.000 0.505
129 387.00 1500.00 580 858 0.740 10000.000 0.000 0.610 15000.000 0.000 0.505
130 390.00 1500.00 577 956 0.740 10000.000 0.000 0.610 15000.000 0.000 0.505
131 393.00 1500.00 601 877 0.740 10000.000 0.000 0.610 15000.000 0.000 0.505
132 396.00 1500.00 609 936 0.740 10000.000 0.000 0.610 15000.000 0.000 0.505
133 399.00 1500.00 626 949 0.740 10000.000 0.000 0.610 15000.000 0.000 0.505
134 402.00 1500.00 586 985 0.740 10000.000 0.000 0.610 15000.000 0.000 0.505
135 405.00 1500.00 558 1026 0.740 10000.000 0.000 0.610 15000.000 0.000 0.505
136 408.00 1500.00 614 975 0.740 10000.000 0.000 0.610 15000.000 0.000 0.505
137 411.00 1500.00 585 1048 0.740 10000.000 0.000 0.610 15000.000 0.000 0.505
138 414.00 1500.00 561 974 0.740 10000.000 0.000 0.610 15000.000 0.000 0.505
139 417.00 1500.00 568 947 0.740 10000.000 0.000 0.610 15000.000 0.000 0.505
140 420.00 1500.00 569 947 0.740 10000.000 0.000 0.610 15000.000 0.000 0.505
141 423.00 1500.00 614 949 0.740 10000.000 0.000 0.610 15000.000 0.000 0.505
142 426.00 1500.00 560 883 0.740 10000.000 0.000 0.610 15000.000 0.000 0.505
143 429.00 1500.00 603 859 0.740 10000.000 0.000 0.610 15000.000 0.000 0.505
144 432.00 1500.00 618 944 0.740 10000.000 0.000 0.610 15000.000 0.000 0.505
