# BinNR microsec tot-time (s)  O-Beam AUX Ampl_1(V) f_1(Hz) phase_1(deg) Ampl_2(V) f_2(Hz) phase_2(deg) chi(pos)
0 0.00 1500.02 351 1067 0.740 10000.000 0.000 0.610 15000.000 0.000 1.154
1 3.00 1500.02 669 2100 0.740 10000.000 0.000 0.610 15000.000 0.000 1.154
2 6.00 1500.02 682 2193 0.740 10000.000 0.000 0.610 15000.000 0.000 1.154
3 9.00 1500.02 647 2115 0.740 10000.000 0.000 0.610 15000.000 0.000 1.154
4 12.00 1500.02 690 2189 0.740 10000.000 0.000 0.610 15000.000 0.000 1.154
5 15.00 1500.02 699 2119 0.740 10000.000 0.000 0.610 15000.000 0.000 1.154
6 18.00 1500.02 675 2186 0.740 10000.000 0.000 0.610 15000.000 0.000 1.154
7 21.00 1500.02 685 2072 0.740 10000.000 0.000 0.610 15000.000 0.000 1.154
8 24.00 1500.02 694 2095 0.740 10000.000 0.000 0.610 15000.000 0.000 1.154
9 27.00 1500.02 662 2035 0.740 10000.000 0.000 0.610 15000.000 0.000 1.154
10 30.00 1500.02 686 2100 0.740 10000.000 0.000 0.610 15000.000 0.000 1.154
11 33.00 1500.02 671 2030 0.740 10000.000 0.000 0.610 15000.000 0.000 1.154
12 36.00 1500.02 660 2042 0.740 10000.000 0.000 0.610 15000.000 0.000 1.154
13 39.00 1500.02 724 2078 0.740 10000.000 0.000 0.610 15000.000 0.000 1.154
14 42.00 1500.02 654 2045 0.740 10000.000 0.000 0.610 15000.000 0.000 1.154
15 45.00 1500.02 626 2162 0.740 10000.000 0.000 0.610 15000.000 0.000 1.154
16 48.00 1500.02 650 2111 0.740 10000.000 0.000 0.610 15000.000 0.000 1.154
17 51.00 1500.02 693 2057 0.740 10000.000 0.000 0.610 15000.000 0.000 1.154
18 54.00 1500.02 685 2133 0.740 10000.000 0.000 0.610 15000.000 0.000 1.154
19 57.00 1500.02 615 1979 0.740 10000.000 0.000 0.610 15000.000 0.000 1.154
20 60.00 1500.02 641 2184 0.740 10000.000 0.000 0.610 15000.000 0.000 1.154
21 63.00 1500.02 645 2072 0.740 10000.000 0.000 0.610 15000.000 0.000 1.154
22 66.00 1500.02 701 2139 0.740 10000.000 0.000 0.610 15000.000 0.000 1.154
23 69.00 1500.02 632 2055 0.740 10000.000 0.000 0.610 15000.000 0.000 1.154
24 72.00 1500.02 705 2064 0.740 10000.000 0.000 0.610 15000.000 0.000 1.154
25 75.00 1500.02 634 2154 0.740 10000.000 0.000 0.610 15000.000 0.000 1.154
26 78.00 1500.02 721 2063 0.740 10000.000 0.000 0.610 15000.000 0.000 1.154
27 81.00 1500.02 741 2105 0.740 10000.000 0.000 0.610 15000.000 0.000 1.154
28 84.00 1500.02 670 2130 0.740 10000.000 0.000 0.610 15000.000 0.000 1.154
29 87.00 1500.02 693 2150 0.740 10000.000 0.000 0.610 15000.000 0.000 1.154
30 90.00 1500.02 707 2082 0.740 10000.000 0.000 0.610 15000.000 0.000 1.154
31 93.00 1500.02 681 2035 0.740 10000.000 0.000 0.610 15000.000 0.000 1.154
32 96.00 1500.02 723 2191 0.740 10000.000 0.000 0.610 15000.000 0.000 1.154
33 99.00 1500.02 702 2079 0.740 10000.000 0.000 0.610 15000.000 0.000 1.154
34 102.00 1500.02 715 2067 0.740 10000.000 0.000 0.610 15000.000 0.000 1.154
35 105.00 1500.02 704 2003 0.740 10000.000 0.000 0.610 15000.000 0.000 1.154
36 108.00 1500.02 676 2187 0.740 10000.000 0.000 0.610 15000.000 0.000 1.154
37 111.00 1500.02 680 2164 0.740 10000.000 0.000 0.610 15000.000 0.000 1.154
38 114.00 1500.02 712 2076 0.740 10000.000 0.000 0.610 15000.000 0.000 1.154
39 117.00 1500.02 667 2172 0.740 10000.000 0.000 0.610 15000.000 0.000 1.154
40 120.00 1500.02 708 2105 0.740 10000.000 0.000 0.610 15000.000 0.000 1.154
41 123.00 1500.02 686 2161 0.740 10000.000 0.000 0.610 15000.000 0.000 1.154
42 126.00 1500.02 699 2150 0.740 10000.000 0.000 0.610 15000.000 0.000 1.154
43 129.00 1500.02 671 2086 0.740 10000.000 0.000 0.610 15000.000 0.000 1.154
44 132.00 1500.02 675 2047 0.740 10000.000 0.000 0.610 15000.000 0.000 1.154
45 135.00 1500.02 698 2189 0.740 10000.000 0.000 0.610 15000.000 0.000 1.154
46 138.00 1500.02 680 2073 0.740 10000.000 0.000 0.610 15000.000 0.000 1.154
47 141.00 1500.02 643 2001 0.740 10000.000 0.000 0.610 15000.000 0.000 1.154
48 144.00 1500.02 703 2107 0.740 10000.000 0.000 0.610 15000.000 0.000 1.154
49 147.00 1500.02 644 2014 0.740 10000.000 0.000 0.610 15000.000 0.000 1.154
50 150.00 1500.02 690 2158 0.740 10000.000 0.000 0.610 15000.000 0.000 1.154
51 153.00 1500.02 674 2088 0.740 10000.000 0.000 0.610 15000.000 0.000 1.154
52 156.00 1500.02 689 2075 0.740 10000.000 0.000 0.610 15000.000 0.000 1.154
53 159.00 1500.02 592 2073 0.740 10000.000 0.000 0.610 15000.000 0.000 1.154
54 162.00 1500.02 694 2205 0.740 10000.000 0.000 0.610 15000.000 0.000 1.154
55 165.00 1500.02 609 2081 0.740 10000.000 0.000 0.610 15000.000 0.000 1.154
56 168.00 1500.02 743 2177 0.740 10000.000 0.000 0.610 15000.000 0.000 1.154
57 171.00 1500.02 636 2153 0.740 10000.000 0.000 0.610 15000.000 0.000 1.154
58 174.00 1500.02 723 2133 0.740 10000.000 0.000 0.610 15000.000 0.000 1.154
59 177.00 1500.02 659 2165 0.740 10000.000 0.000 0.610 15000.000 0.000 1.154
60 180.00 1500.02 667 2088 0.740 10000.000 0.000 0.610 15000.000 0.000 1.154
61 183.00 1500.02 673 2102 0.740 10000.000 0.000 0.610 15000.000 0.000 1.154
62 186.00 1500.02 641 2112 0.740 10000.000 0.000 0.610 15000.000 0.000 1.154
63 189.00 1500.02 685 2099 0.740 10000.000 0.000 0.610 15000.000 0.000 1.154
64 192.00 1500.02 678 2079 0.740 10000.000 0.000 0.610 15000.000 0.000 1.154
65 195.00 1500.02 659 2078 0.740 10000.000 0.000 0.610 15000.000 0.000 1.154
66 198.00 1500.02 658 2130 0.740 10000.000 0.000 0.610 15000.000 0.000 1.154
67 201.00 1500.02 664 2106 0.740 10000.000 0.000 0.610 15000.000 0.000 1.154
68 204.00 1500.02 673 2077 0.740 10000.000 0.000 0.610 15000.000 0.000 1.154
69 207.00 1500.02 703 2116 0.740 10000.000 0.000 0.610 15000.000 0.000 1.154
70 210.00 1500.02 726 2109 0.740 10000.000 0.000 0.610 15000.000 0.000 1.154
71 213.00 1500.02 679 2187 0.740 10000.000 0.000 0.610 15000.000 0.000 1.154
72 216.00 1500.02 659 2083 0.740 10000.000 0.000 0.610 15000.000 0.000 1.154
73 219.00 1500.02 682 2047 0.740 10000.000 0.000 0.610 15000.000 0.000 1.154
74 222.00 1500.02 676 2060 0.740 10000.000 0.000 0.610 15000.000 0.000 1.154
75 225.00 1500.02 658 1941 0.740 10000.000 0.000 0.610 15000.000 0.000 1.154
76 228.00 1500.02 648 2152 0.740 10000.000 0.000 0.610 15000.000 0.000 1.154
77 231.00 1500.02 666 2118 0.740 10000.000 0.000 0.610 15000.000 0.000 1.154
78 234.00 1500.02 640 2130 0.740 10000.000 0.000 0.610 15000.000 0.000 1.154
79 237.00 1500.02 681 2168 0.740 10000.000 0.000 0.610 15000.000 0.000 1.154
80 240.00 1500.02 676 2218 0.740 10000.000 0.000 0.610 15000.000 0.000 1.154
81 243.00 1500.02 689 2021 0.740 10000.000 0.000 0.610 15000.000 0.000 1.154
82 246.00 1500.02 713 2106 0.740 10000.000 0.000 0.610 15000.000 0.000 1.154
83 249.00 1500.02 690 2156 0.740 10000.000 0.000 0.610 15000.000 0.000 1.154
84 252.00 1500.02 689 2099 0.740 10000.000 0.000 0.610 15000.000 0.000 1.154
85 255.00 1500.02 663 2140 0.740 10000.000 0.000 0.610 15000.000 0.000 1.154
86 258.00 1500.02 727 2109 0.740 10000.000 0.000 0.610 15000.000 0.000 1.154
87 261.00 1500.02 735 2064 0.740 10000.000 0.000 0.610 15000.000 0.000 1.154
88 264.00 1500.02 700 2150 0.740 10000.000 0.000 0.610 15000.000 0.000 1.154
89 267.00 1500.02 668 2065 0.740 10000.000 0.000 0.610 15000.000 0.000 1.154
90 270.00 1500.02 681 2146 0.740 10000.000 0.000 0.610 15000.000 0.000 1.154
91 273.00 1500.02 644 2153 0.740 10000.000 0.000 0.610 15000.000 0.000 1.154
92 276.00 1500.02 728 2107 0.740 10000.000 0.000 0.610 15000.000 0.000 1.154
93 279.00 1500.02 695 2090 0.740 10000.000 0.000 0.610 15000.000 0.000 1.154
94 282.00 1500.02 701 2148 0.740 10000.000 0.000 0.610 15000.000 0.000 1.154
95 285.00 1500.02 676 2163 0.740 10000.000 0.000 0.610 15000.000 0.000 1.154
96 288.00 1500.02 693 2149 0.740 10000.000 0.000 0.610 15000.000 0.000 1.154
97 291.00 1500.02 645 2074 0.740 10000.000 0.000 0.610 15000.000 0.000 1.154
98 294.00 1500.02 702 2125 0.740 10000.000 0.000 0.610 15000.000 0.000 1.154
99 297.00 1500.02 683 2082 0.740 10000.000 0.000 0.610 15000.000 0.000 1.154
100 300.00 1500.02 742 2106 0.740 10000.000 0.000 0.610 15000.000 0.000 1.154
101 303.00 1500.02 676 2089 0.740 10000.000 0.000 0.610 15000.000 0.000 1.154
102 306.00 1500.02 730 2094 0.740 10000.000 0.000 0.610 15000.000 0.000 1.154
103 309.00 1500.02 684 1977 0.740 10000.000 0.000 0.610 15000.000 0.000 1.154
104 312.00 1500.02 697 2174 0.740 10000.000 0.000 0.610 15000.000 0.000 1.154
105 315.00 1500.02 657 2093 0.740 10000.000 0.000 0.610 15000.000 0.000 1.154
106 318.00 1500.02 714 2182 0.740 10000.000 0.000 0.610 15000.000 0.000 1.154
107 321.00 1500.02 677 2068 0.740 10000.000 0.000 0.610 15000.000 0.000 1.154
108 324.00 1500.02 646 2044 0.740 10000.000 0.000 0.610 15000.000 0.000 1.154
109 327.00 1500.02 694 2081 0.740 10000.000 0.000 0.610 15000.000 0.000 1.154
110 330.00 1500.02 694 2140 0.740 10000.000 0.000 0.610 15000.000 0.000 1.154
111 333.00 1500.02 722 2087 0.740 10000.000 0.000 0.610 15000.000 0.000 1.154
112 336.00 1500.02 697 2080 0.740 10000.000 0.000 0.610 15000.000 0.000 1.154
113 339.00 1500.02 644 2062 0.740 10000.000 0.000 0.610 15000.000 0.000 1.154
114 342.00 1500.02 680 2091 0.740 10000.000 0.000 0.610 15000.000 0.000 1.154
115 345.00 1500.02 677 2184 0.740 10000.000 0.000 0.610 15000.000 0.000 1.154
116 348.00 1500.02 662 2099 0.740 10000.000 0.000 0.610 15000.000 0.000 1.154
117 351.00 1500.02 699 2111 0.740 10000.000 0.000 0.610 15000.000 0.000 1.154
118 354.00 1500.02 671 2073 0.740 10000.000 0.000 0.610 15000.000 0.000 1.154
119 357.00 1500.02 679 2047 0.740 10000.000 0.000 0.610 15000.000 0.000 1.154
120 360.00 1500.02 705 2093 0.740 10000.000 0.000 0.610 15000.000 0.000 1.154
121 363.00 1500.02 681 2105 0.740 10000.000 0.000 0.610 15000.000 0.000 1.154
122 366.00 1500.02 645 2076 0.740 10000.000 0.000 0.610 15000.000 0.000 1.154
123 369.00 1500.02 673 2082 0.740 10000.000 0.000 0.610 15000.000 0.000 1.154
124 372.00 1500.02 708 2076 0.740 10000.000 0.000 0.610 15000.000 0.000 1.154
125 375.00 1500.02 641 2079 0.740 10000.000 0.000 0.610 15000.000 0.000 1.154
126 378.00 1500.02 653 2123 0.740 10000.000 0.000 0.610 15000.000 0.000 1.154
127 381.00 1500.02 633 2048 0.740 10000.000 0.000 0.610 15000.000 0.000 1.154
128 384.00 1500.02 642 2170 0.740 10000.000 0.000 0.610 15000.000 0.000 1.154
129 387.00 1500.02 679 1982 0.740 10000.000 0.000 0.610 15000.000 0.000 1.154
130 390.00 1500.02 712 2072 0.740 10000.000 0.000 0.610 15000.000 0.000 1.154
131 393.00 1500.02 687 2054 0.740 10000.000 0.000 0.610 15000.000 0.000 1.154
132 396.00 1500.02 674 2150 0.740 10000.000 0.000 0.610 15000.000 0.000 1.154
133 399.00 1500.02 657 2080 0.740 10000.000 0.000 0.610 15000.000 0.000 1.154
134 402.00 1500.02 691 2148 0.740 10000.000 0.000 0.610 15000.000 0.000 1.154
135 405.00 1500.02 687 2163 0.740 10000.000 0.000 0.610 15000.000 0.000 1.154
136 408.00 1500.02 684 2202 0.740 10000.000 0.000 0.610 15000.000 0.000 1.154
137 411.00 1500.02 658 2040 0.740 10000.000 0.000 0.610 15000.000 0.000 1.154
138 414.00 1500.02 668 2137 0.740 10000.000 0.000 0.610 15000.000 0.000 1.154
139 417.00 1500.02 675 2061 0.740 10000.000 0.000 0.610 15000.000 0.000 1.154
140 420.00 1500.02 692 2146 0.740 10000.000 0.000 0.610 15000.000 0.000 1.154
141 423.00 1500.02 721 2084 0.740 10000.000 0.000 0.610 15000.000 0.000 1.154
142 426.00 1500.02 664 2074 0.740 10000.000 0.000 0.610 15000.000 0.000 1.154
143 429.00 1500.02 623 2057 0.740 10000.000 0.000 0.610 15000.000 0.000 1.154
144 432.00 1500.02 686 2182 0.740 10000.000 0.000 0.610 15000.000 0.000 1.154
