# BinNR microsec tot-time (s)  O-Beam AUX Ampl_1(V) f_1(Hz) phase_1(deg) Ampl_2(V) f_2(Hz) phase_2(deg) chi(pos)
0 0.00 1500.03 535 1215 0.740 10000.000 0.000 0.610 15000.000 0.000 0.165
1 3.00 1500.03 985 2445 0.740 10000.000 0.000 0.610 15000.000 0.000 0.165
2 6.00 1500.03 1040 2450 0.740 10000.000 0.000 0.610 15000.000 0.000 0.165
3 9.00 1500.03 975 2469 0.740 10000.000 0.000 0.610 15000.000 0.000 0.165
4 12.00 1500.03 1030 2456 0.740 10000.000 0.000 0.610 15000.000 0.000 0.165
5 15.00 1500.03 1040 2474 0.740 10000.000 0.000 0.610 15000.000 0.000 0.165
6 18.00 1500.03 1058 2484 0.740 10000.000 0.000 0.610 15000.000 0.000 0.165
7 21.00 1500.03 1048 2443 0.740 10000.000 0.000 0.610 15000.000 0.000 0.165
8 24.00 1500.03 1052 2528 0.740 10000.000 0.000 0.610 15000.000 0.000 0.165
9 27.00 1500.03 1012 2438 0.740 10000.000 0.000 0.610 15000.000 0.000 0.165
10 30.00 1500.03 1003 2446 0.740 10000.000 0.000 0.610 15000.000 0.000 0.165
11 33.00 1500.03 962 2448 0.740 10000.000 0.000 0.610 15000.000 0.000 0.165
12 36.00 1500.03 1059 2471 0.740 10000.000 0.000 0.610 15000.000 0.000 0.165
13 39.00 1500.03 971 2400 0.740 10000.000 0.000 0.610 15000.000 0.000 0.165
14 42.00 1500.03 1069 2482 0.740 10000.000 0.000 0.610 15000.000 0.000 0.165
15 45.00 1500.03 988 2475 0.740 10000.000 0.000 0.610 15000.000 0.000 0.165
16 48.00 1500.03 979 2451 0.740 10000.000 0.000 0.610 15000.000 0.000 0.165
17 51.00 1500.03 975 2405 0.740 10000.000 0.000 0.610 15000.000 0.000 0.165
18 54.00 1500.03 1017 2493 0.740 10000.000 0.000 0.610 15000.000 0.000 0.165
19 57.00 1500.03 1057 2458 0.740 10000.000 0.000 0.610 15000.000 0.000 0.165
20 60.00 1500.03 1102 2516 0.740 10000.000 0.000 0.610 15000.000 0.000 0.165
21 63.00 1500.03 1005 2424 0.740 10000.000 0.000 0.610 15000.000 0.000 0.165
22 66.00 1500.03 954 2497 0.740 10000.000 0.000 0.610 15000.000 0.000 0.165
23 69.00 1500.03 984 2608 0.740 10000.000 0.000 0.610 15000.000 0.000 0.165
24 72.00 1500.03 1015 2434 0.740 10000.000 0.000 0.610 15000.000 0.000 0.165
25 75.00 1500.03 999 2396 0.740 10000.000 0.000 0.610 15000.000 0.000 0.165
26 78.00 1500.03 997 2545 0.740 10000.000 0.000 0.610 15000.000 0.000 0.165
27 81.00 1500.03 1069 2476 0.740 10000.000 0.000 0.610 15000.000 0.000 0.165
28 84.00 1500.03 929 2576 0.740 10000.000 0.000 0.610 15000.000 0.000 0.165
29 87.00 1500.03 946 2487 0.740 10000.000 0.000 0.610 15000.000 0.000 0.165
30 90.00 1500.03 965 2504 0.740 10000.000 0.000 0.610 15000.000 0.000 0.165
31 93.00 1500.03 968 2304 0.740 10000.000 0.000 0.610 15000.000 0.000 0.165
32 96.00 1500.03 989 2542 0.740 10000.000 0.000 0.610 15000.000 0.000 0.165
33 99.00 1500.03 981 2365 0.740 10000.000 0.000 0.610 15000.000 0.000 0.165
34 102.00 1500.03 990 2507 0.740 10000.000 0.000 0.610 15000.000 0.000 0.165
35 105.00 1500.03 999 2473 0.740 10000.000 0.000 0.610 15000.000 0.000 0.165
36 108.00 1500.03 997 2422 0.740 10000.000 0.000 0.610 15000.000 0.000 0.165
37 111.00 1500.03 1005 2414 0.740 10000.000 0.000 0.610 15000.000 0.000 0.165
38 114.00 1500.03 980 2527 0.740 10000.000 0.000 0.610 15000.000 0.000 0.165
39 117.00 1500.03 965 2387 0.740 10000.000 0.000 0.610 15000.000 0.000 0.165
40 120.00 1500.03 982 2586 0.740 10000.000 0.000 0.610 15000.000 0.000 0.165
41 123.00 1500.03 981 2496 0.740 10000.000 0.000 0.610 15000.000 0.000 0.165
42 126.00 1500.03 998 2557 0.740 10000.000 0.000 0.610 15000.000 0.000 0.165
43 129.00 1500.03 996 2317 0.740 10000.000 0.000 0.610 15000.000 0.000 0.165
44 132.00 1500.03 999 2504 0.740 10000.000 0.000 0.610 15000.000 0.000 0.165
45 135.00 1500.03 982 2545 0.740 10000.000 0.000 0.610 15000.000 0.000 0.165
46 138.00 1500.03 1018 2437 0.740 10000.000 0.000 0.610 15000.000 0.000 0.165
47 141.00 1500.03 1037 2419 0.740 10000.000 0.000 0.610 15000.000 0.000 0.165
48 144.00 1500.03 1021 2534 0.740 10000.000 0.000 0.610 15000.000 0.000 0.165
49 147.00 1500.03 1000 2427 0.740 10000.000 0.000 0.610 15000.000 0.000 0.165
50 150.00 1500.03 1054 2419 0.740 10000.000 0.000 0.610 15000.000 0.000 0.165
51 153.00 1500.03 1034 2436 0.740 10000.000 0.000 0.610 15000.000 0.000 0.165
52 156.00 1500.03 1068 2506 0.740 10000.000 0.000 0.610 15000.000 0.000 0.165
53 159.00 1500.03 989 2551 0.740 10000.000 0.000 0.610 15000.000 0.000 0.165
54 162.00 1500.03 1023 2442 0.740 10000.000 0.000 0.610 15000.000 0.000 0.165
55 165.00 1500.03 987 2478 0.740 10000.000 0.000 0.610 15000.000 0.000 0.165
56 168.00 1500.03 1001 2474 0.740 10000.000 0.000 0.610 15000.000 0.000 0.165
57 171.00 1500.03 955 2457 0.740 10000.000 0.000 0.610 15000.000 0.000 0.165
58 174.00 1500.03 1067 2400 0.740 10000.000 0.000 0.610 15000.000 0.000 0.165
59 177.00 1500.03 983 2432 0.740 10000.000 0.000 0.610 15000.000 0.000 0.165
60 180.00 1500.03 978 2410 0.740 10000.000 0.000 0.610 15000.000 0.000 0.165
61 183.00 1500.03 1059 2415 0.740 10000.000 0.000 0.610 15000.000 0.000 0.165
62 186.00 1500.03 1013 2521 0.740 10000.000 0.000 0.610 15000.000 0.000 0.165
63 189.00 1500.03 1010 2351 0.740 10000.000 0.000 0.610 15000.000 0.000 0.165
64 192.00 1500.03 1008 2496 0.740 10000.000 0.000 0.610 15000.000 0.000 0.165
65 195.00 1500.03 1055 2391 0.740 10000.000 0.000 0.610 15000.000 0.000 0.165
66 198.00 1500.03 1057 2492 0.740 10000.000 0.000 0.610 15000.000 0.000 0.165
67 201.00 1500.03 1007 2360 0.740 10000.000 0.000 0.610 15000.000 0.000 0.165
68 204.00 1500.03 1041 2470 0.740 10000.000 0.000 0.610 15000.000 0.000 0.165
69 207.00 1500.03 1015 2483 0.740 10000.000 0.000 0.610 15000.000 0.000 0.165
70 210.00 1500.03 1023 2472 0.740 10000.000 0.000 0.610 15000.000 0.000 0.165
71 213.00 1500.03 1007 2403 0.740 10000.000 0.000 0.610 15000.000 0.000 0.165
72 216.00 1500.03 1016 2556 0.740 10000.000 0.000 0.610 15000.000 0.000 0.165
73 219.00 1500.03 1035 2453 0.740 10000.000 0.000 0.610 15000.000 0.000 0.165
74 222.00 1500.03 1001 2487 0.740 10000.000 0.000 0.610 15000.000 0.000 0.165
75 225.00 1500.03 988 2345 0.740 10000.000 0.000 0.610 15000.000 0.000 0.165
76 228.00 1500.03 1021 2489 0.740 10000.000 0.000 0.610 15000.000 0.000 0.165
77 231.00 1500.03 936 2473 0.740 10000.000 0.000 0.610 15000.000 0.000 0.165
78 234.00 1500.03 1108 2466 0.740 10000.000 0.000 0.610 15000.000 0.000 0.165
79 237.00 1500.03 993 2456 0.740 10000.000 0.000 0.610 15000.000 0.000 0.165
80 240.00 1500.03 1010 2510 0.740 10000.000 0.000 0.610 15000.000 0.000 0.165
81 243.00 1500.03 1019 2352 0.740 10000.000 0.000 0.610 15000.000 0.000 0.165
82 246.00 1500.03 974 2418 0.740 10000.000 0.000 0.610 15000.000 0.000 0.165
83 249.00 1500.03 1021 2418 0.740 10000.000 0.000 0.610 15000.000 0.000 0.165
84 252.00 1500.03 1016 2465 0.740 10000.000 0.000 0.610 15000.000 0.000 0.165
85 255.00 1500.03 978 2450 0.740 10000.000 0.000 0.610 15000.000 0.000 0.165
86 258.00 1500.03 1045 2491 0.740 10000.000 0.000 0.610 15000.000 0.000 0.165
87 261.00 1500.03 977 2463 0.740 10000.000 0.000 0.610 15000.000 0.000 0.165
88 264.00 1500.03 993 2548 0.740 10000.000 0.000 0.610 15000.000 0.000 0.165
89 267.00 1500.03 1002 2385 0.740 10000.000 0.000 0.610 15000.000 0.000 0.165
90 270.00 1500.03 1071 2420 0.740 10000.000 0.000 0.610 15000.000 0.000 0.165
91 273.00 1500.03 976 2365 0.740 10000.000 0.000 0.610 15000.000 0.000 0.165
92 276.00 1500.03 985 2423 0.740 10000.000 0.000 0.610 15000.000 0.000 0.165
93 279.00 1500.03 1005 2477 0.740 10000.000 0.000 0.610 15000.000 0.000 0.165
94 282.00 1500.03 1013 2526 0.740 10000.000 0.000 0.610 15000.000 0.000 0.165
95 285.00 1500.03 969 2489 0.740 10000.000 0.000 0.610 15000.000 0.000 0.165
96 288.00 1500.03 996 2504 0.740 10000.000 0.000 0.610 15000.000 0.000 0.165
97 291.00 1500.03 996 2446 0.740 10000.000 0.000 0.610 15000.000 0.000 0.165
98 294.00 1500.03 1017 2422 0.740 10000.000 0.000 0.610 15000.000 0.000 0.165
99 297.00 1500.03 1030 2365 0.740 10000.000 0.000 0.610 15000.000 0.000 0.165
100 300.00 1500.03 1080 2432 0.740 10000.000 0.000 0.610 15000.000 0.000 0.165
101 303.00 1500.03 984 2446 0.740 10000.000 0.000 0.610 15000.000 0.000 0.165
102 306.00 1500.03 1028 2439 0.740 10000.000 0.000 0.610 15000.000 0.000 0.165
103 309.00 1500.03 1077 2398 0.740 10000.000 0.000 0.610 15000.000 0.000 0.165
104 312.00 1500.03 1092 2443 0.740 10000.000 0.000 0.610 15000.000 0.000 0.165
105 315.00 1500.03 961 2367 0.740 10000.000 0.000 0.610 15000.000 0.000 0.165
106 318.00 1500.03 1034 2510 0.740 10000.000 0.000 0.610 15000.000 0.000 0.165
107 321.00 1500.03 982 2334 0.740 10000.000 0.000 0.610 15000.000 0.000 0.165
108 324.00 1500.03 1004 2530 0.740 10000.000 0.000 0.610 15000.000 0.000 0.165
109 327.00 1500.03 1024 2491 0.740 10000.000 0.000 0.610 15000.000 0.000 0.165
110 330.00 1500.03 1033 2455 0.740 10000.000 0.000 0.610 15000.000 0.000 0.165
111 333.00 1500.03 945 2559 0.740 10000.000 0.000 0.610 15000.000 0.000 0.165
112 336.00 1500.03 1036 2491 0.740 10000.000 0.000 0.610 15000.000 0.000 0.165
113 339.00 1500.03 1028 2405 0.740 10000.000 0.000 0.610 15000.000 0.000 0.165
114 342.00 1500.03 1058 2510 0.740 10000.000 0.000 0.610 15000.000 0.000 0.165
115 345.00 1500.03 985 2431 0.740 10000.000 0.000 0.610 15000.000 0.000 0.165
116 348.00 1500.03 1093 2386 0.740 10000.000 0.000 0.610 15000.000 0.000 0.165
117 351.00 1500.03 998 2410 0.740 10000.000 0.000 0.610 15000.000 0.000 0.165
118 354.00 1500.03 1079 2559 0.740 10000.000 0.000 0.610 15000.000 0.000 0.165
119 357.00 1500.03 1053 2395 0.740 10000.000 0.000 0.610 15000.000 0.000 0.165
120 360.00 1500.03 1038 2430 0.740 10000.000 0.000 0.610 15000.000 0.000 0.165
121 363.00 1500.03 1000 2434 0.740 10000.000 0.000 0.610 15000.000 0.000 0.165
122 366.00 1500.03 1010 2520 0.740 10000.000 0.000 0.610 15000.000 0.000 0.165
123 369.00 1500.03 1039 2409 0.740 10000.000 0.000 0.610 15000.000 0.000 0.165
124 372.00 1500.03 990 2479 0.740 10000.000 0.000 0.610 15000.000 0.000 0.165
125 375.00 1500.03 953 2433 0.740 10000.000 0.000 0.610 15000.000 0.000 0.165
126 378.00 1500.03 983 2559 0.740 10000.000 0.000 0.610 15000.000 0.000 0.165
127 381.00 1500.03 1039 2380 0.740 10000.000 0.000 0.610 15000.000 0.000 0.165
128 384.00 1500.03 1036 2444 0.740 10000.000 0.000 0.610 15000.000 0.000 0.165
129 387.00 1500.03 1012 2474 0.740 10000.000 0.000 0.610 15000.000 0.000 0.165
130 390.00 1500.03 1064 2412 0.740 10000.000 0.000 0.610 15000.000 0.000 0.165
131 393.00 1500.03 1027 2385 0.740 10000.000 0.000 0.610 15000.000 0.000 0.165
132 396.00 1500.03 1028 2470 0.740 10000.000 0.000 0.610 15000.000 0.000 0.165
133 399.00 1500.03 999 2530 0.740 10000.000 0.000 0.610 15000.000 0.000 0.165
134 402.00 1500.03 1021 2466 0.740 10000.000 0.000 0.610 15000.000 0.000 0.165
135 405.00 1500.03 1011 2449 0.740 10000.000 0.000 0.610 15000.000 0.000 0.165
136 408.00 1500.03 1049 2426 0.740 10000.000 0.000 0.610 15000.000 0.000 0.165
137 411.00 1500.03 994 2420 0.740 10000.000 0.000 0.610 15000.000 0.000 0.165
138 414.00 1500.03 1055 2455 0.740 10000.000 0.000 0.610 15000.000 0.000 0.165
139 417.00 1500.03 1031 2481 0.740 10000.000 0.000 0.610 15000.000 0.000 0.165
140 420.00 1500.03 1033 2466 0.740 10000.000 0.000 0.610 15000.000 0.000 0.165
141 423.00 1500.03 1007 2480 0.740 10000.000 0.000 0.610 15000.000 0.000 0.165
142 426.00 1500.03 1053 2500 0.740 10000.000 0.000 0.610 15000.000 0.000 0.165
143 429.00 1500.03 984 2432 0.740 10000.000 0.000 0.610 15000.000 0.000 0.165
144 432.00 1500.03 980 2483 0.740 10000.000 0.000 0.610 15000.000 0.000 0.165
