# BinNR microsec tot-time (s)  O-Beam AUX Ampl_1(V) f_1(Hz) phase_1(deg) Ampl_2(V) f_2(Hz) phase_2(deg) chi(pos)
0 0.00 1500.00 227 761 0.740 10000.000 0.000 0.610 15000.000 0.000 -1.011
1 3.00 1500.00 559 1579 0.740 10000.000 0.000 0.610 15000.000 0.000 -1.011
2 6.00 1500.00 584 1619 0.740 10000.000 0.000 0.610 15000.000 0.000 -1.011
3 9.00 1500.00 526 1560 0.740 10000.000 0.000 0.610 15000.000 0.000 -1.011
4 12.00 1500.00 515 1585 0.740 10000.000 0.000 0.610 15000.000 0.000 -1.011
5 15.00 1500.00 587 1521 0.740 10000.000 0.000 0.610 15000.000 0.000 -1.011
6 18.00 1500.00 539 1463 0.740 10000.000 0.000 0.610 15000.000 0.000 -1.011
7 21.00 1500.00 553 1462 0.740 10000.000 0.000 0.610 15000.000 0.000 -1.011
8 24.00 1500.00 550 1419 0.740 10000.000 0.000 0.610 15000.000 0.000 -1.011
9 27.00 1500.00 573 1463 0.740 10000.000 0.000 0.610 15000.000 0.000 -1.011
10 30.00 1500.00 588 1487 0.740 10000.000 0.000 0.610 15000.000 0.000 -1.011
11 33.00 1500.00 524 1488 0.740 10000.000 0.000 0.610 15000.000 0.000 -1.011
12 36.00 1500.00 540 1440 0.740 10000.000 0.000 0.610 15000.000 0.000 -1.011
13 39.00 1500.00 518 1428 0.740 10000.000 0.000 0.610 15000.000 0.000 -1.011
14 42.00 1500.00 585 1417 0.740 10000.000 0.000 0.610 15000.000 0.000 -1.011
15 45.00 1500.00 587 1479 0.740 10000.000 0.000 0.610 15000.000 0.000 -1.011
16 48.00 1500.00 556 1515 0.740 10000.000 0.000 0.610 15000.000 0.000 -1.011
17 51.00 1500.00 559 1519 0.740 10000.000 0.000 0.610 15000.000 0.000 -1.011
18 54.00 1500.00 588 1500 0.740 10000.000 0.000 0.610 15000.000 0.000 -1.011
19 57.00 1500.00 546 1475 0.740 10000.000 0.000 0.610 15000.000 0.000 -1.011
20 60.00 1500.00 563 1517 0.740 10000.000 0.000 0.610 15000.000 0.000 -1.011
21 63.00 1500.00 542 1605 0.740 10000.000 0.000 0.610 15000.000 0.000 -1.011
22 66.00 1500.00 553 1502 0.740 10000.000 0.000 0.610 15000.000 0.000 -1.011
23 69.00 1500.00 582 1474 0.740 10000.000 0.000 0.610 15000.000 0.000 -1.011
24 72.00 1500.00 544 1448 0.740 10000.000 0.000 0.610 15000.000 0.000 -1.011
25 75.00 1500.00 569 1406 0.740 10000.000 0.000 0.610 15000.000 0.000 -1.011
26 78.00 1500.00 585 1465 0.740 10000.000 0.000 0.610 15000.000 0.000 -1.011
27 81.00 1500.00 612 1564 0.740 10000.000 0.000 0.610 15000.000 0.000 -1.011
28 84.00 1500.00 593 1570 0.740 10000.000 0.000 0.610 15000.000 0.000 -1.011
29 87.00 1500.00 553 1539 0.740 10000.000 0.000 0.610 15000.000 0.000 -1.011
30 90.00 1500.00 620 1556 0.740 10000.000 0.000 0.610 15000.000 0.000 -1.011
31 93.00 1500.00 596 1459 0.740 10000.000 0.000 0.610 15000.000 0.000 -1.011
32 96.00 1500.00 575 1520 0.740 10000.000 0.000 0.610 15000.000 0.000 -1.011
33 99.00 1500.00 577 1522 0.740 10000.000 0.000 0.610 15000.000 0.000 -1.011
34 102.00 1500.00 570 1485 0.740 10000.000 0.000 0.610 15000.000 0.000 -1.011
35 105.00 1500.00 569 1397 0.740 10000.000 0.000 0.610 15000.000 0.000 -1.011
36 108.00 1500.00 571 1501 0.740 10000.000 0.000 0.610 15000.000 0.000 -1.011
37 111.00 1500.00 556 1464 0.740 10000.000 0.000 0.610 15000.000 0.000 -1.011
38 114.00 1500.00 550 1448 0.740 10000.000 0.000 0.610 15000.000 0.000 -1.011
39 117.00 1500.00 565 1450 0.740 10000.000 0.000 0.610 15000.000 0.000 -1.011
40 120.00 1500.00 574 1491 0.740 10000.000 0.000 0.610 15000.000 0.000 -1.011
41 123.00 1500.00 550 1497 0.740 10000.000 0.000 0.610 15000.000 0.000 -1.011
42 126.00 1500.00 588 1540 0.740 10000.000 0.000 0.610 15000.000 0.000 -1.011
43 129.00 1500.00 602 1443 0.740 10000.000 0.000 0.610 15000.000 0.000 -1.011
44 132.00 1500.00 569 1492 0.740 10000.000 0.000 0.610 15000.000 0.000 -1.011
45 135.00 1500.00 554 1454 0.740 10000.000 0.000 0.610 15000.000 0.000 -1.011
46 138.00 1500.00 546 1524 0.740 10000.000 0.000 0.610 15000.000 0.000 -1.011
47 141.00 1500.00 549 1430 0.740 10000.000 0.000 0.610 15000.000 0.000 -1.011
48 144.00 1500.00 551 1504 0.740 10000.000 0.000 0.610 15000.000 0.000 -1.011
49 147.00 1500.00 553 1432 0.740 10000.000 0.000 0.610 15000.000 0.000 -1.011
50 150.00 1500.00 551 1494 0.740 10000.000 0.000 0.610 15000.000 0.000 -1.011
51 153.00 1500.00 556 1430 0.740 10000.000 0.000 0.610 15000.000 0.000 -1.011
52 156.00 1500.00 526 1481 0.740 10000.000 0.000 0.610 15000.000 0.000 -1.011
53 159.00 1500.00 529 1456 0.740 10000.000 0.000 0.610 15000.000 0.000 -1.011
54 162.00 1500.00 557 1495 0.740 10000.000 0.000 0.610 15000.000 0.000 -1.011
55 165.00 1500.00 548 1460 0.740 10000.000 0.000 0.610 15000.000 0.000 -1.011
56 168.00 1500.00 562 1563 0.740 10000.000 0.000 0.610 15000.000 0.000 -1.011
57 171.00 1500.00 564 1448 0.740 10000.000 0.000 0.610 15000.000 0.000 -1.011
58 174.00 1500.00 560 1493 0.740 10000.000 0.000 0.610 15000.000 0.000 -1.011
59 177.00 1500.00 563 1459 0.740 10000.000 0.000 0.610 15000.000 0.000 -1.011
60 180.00 1500.00 531 1469 0.740 10000.000 0.000 0.610 15000.000 0.000 -1.011
61 183.00 1500.00 550 1473 0.740 10000.000 0.000 0.610 15000.000 0.000 -1.011
62 186.00 1500.00 531 1509 0.740 10000.000 0.000 0.610 15000.000 0.000 -1.011
63 189.00 1500.00 528 1437 0.740 10000.000 0.000 0.610 15000.000 0.000 -1.011
64 192.00 1500.00 526 1466 0.740 10000.000 0.000 0.610 15000.000 0.000 -1.011
65 195.00 1500.00 537 1470 0.740 10000.000 0.000 0.610 15000.000 0.000 -1.011
66 198.00 1500.00 537 1503 0.740 10000.000 0.000 0.610 15000.000 0.000 -1.011
67 201.00 1500.00 540 1491 0.740 10000.000 0.000 0.610 15000.000 0.000 -1.011
68 204.00 1500.00 523 1543 0.740 10000.000 0.000 0.610 15000.000 0.000 -1.011
69 207.00 1500.00 537 1535 0.740 10000.000 0.000 0.610 15000.000 0.000 -1.011
70 210.00 1500.00 527 1543 0.740 10000.000 0.000 0.610 15000.000 0.000 -1.011
71 213.00 1500.00 569 1525 0.740 10000.000 0.000 0.610 15000.000 0.000 -1.011
72 216.00 1500.00 519 1519 0.740 10000.000 0.000 0.610 15000.000 0.000 -1.011
73 219.00 1500.00 548 1495 0.740 10000.000 0.000 0.610 15000.000 0.000 -1.011
74 222.00 1500.00 555 1436 0.740 10000.000 0.000 0.610 15000.000 0.000 -1.011
75 225.00 1500.00 506 1445 0.740 10000.000 0.000 0.610 15000.000 0.000 -1.011
76 228.00 1500.00 527 1445 0.740 10000.000 0.000 0.610 15000.000 0.000 -1.011
77 231.00 1500.00 541 1496 0.740 10000.000 0.000 0.610 15000.000 0.000 -1.011
78 234.00 1500.00 570 1570 0.740 10000.000 0.000 0.610 15000.000 0.000 -1.011
79 237.00 1500.00 567 1548 0.740 10000.000 0.000 0.610 15000.000 0.000 -1.011
80 240.00 1500.00 615 1620 0.740 10000.000 0.000 0.610 15000.000 0.000 -1.011
81 243.00 1500.00 539 1638 0.740 10000.000 0.000 0.610 15000.000 0.000 -1.011
82 246.00 1500.00 581 1659 0.740 10000.000 0.000 0.610 15000.000 0.000 -1.011
83 249.00 1500.00 544 1740 0.740 10000.000 0.000 0.610 15000.000 0.000 -1.011
84 252.00 1500.00 598 1648 0.740 10000.000 0.000 0.610 15000.000 0.000 -1.011
85 255.00 1500.00 557 1596 0.740 10000.000 0.000 0.610 15000.000 0.000 -1.011
86 258.00 1500.00 613 1651 0.740 10000.000 0.000 0.610 15000.000 0.000 -1.011
87 261.00 1500.00 553 1473 0.740 10000.000 0.000 0.610 15000.000 0.000 -1.011
88 264.00 1500.00 561 1444 0.740 10000.000 0.000 0.610 15000.000 0.000 -1.011
89 267.00 1500.00 585 1533 0.740 10000.000 0.000 0.610 15000.000 0.000 -1.011
90 270.00 1500.00 544 1509 0.740 10000.000 0.000 0.610 15000.000 0.000 -1.011
91 273.00 1500.00 529 1454 0.740 10000.000 0.000 0.610 15000.000 0.000 -1.011
92 276.00 1500.00 577 1495 0.740 10000.000 0.000 0.610 15000.000 0.000 -1.011
93 279.00 1500.00 597 1565 0.740 10000.000 0.000 0.610 15000.000 0.000 -1.011
94 282.00 1500.00 544 1513 0.740 10000.000 0.000 0.610 15000.000 0.000 -1.011
95 285.00 1500.00 558 1506 0.740 10000.000 0.000 0.610 15000.000 0.000 -1.011
96 288.00 1500.00 579 1575 0.740 10000.000 0.000 0.610 15000.000 0.000 -1.011
97 291.00 1500.00 547 1602 0.740 10000.000 0.000 0.610 15000.000 0.000 -1.011
98 294.00 1500.00 591 1589 0.740 10000.000 0.000 0.610 15000.000 0.000 -1.011
99 297.00 1500.00 544 1448 0.740 10000.000 0.000 0.610 15000.000 0.000 -1.011
100 300.00 1500.00 543 1563 0.740 10000.000 0.000 0.610 15000.000 0.000 -1.011
101 303.00 1500.00 544 1446 0.740 10000.000 0.000 0.610 15000.000 0.000 -1.011
102 306.00 1500.00 559 1489 0.740 10000.000 0.000 0.610 15000.000 0.000 -1.011
103 309.00 1500.00 528 1454 0.740 10000.000 0.000 0.610 15000.000 0.000 -1.011
104 312.00 1500.00 568 1445 0.740 10000.000 0.000 0.610 15000.000 0.000 -1.011
105 315.00 1500.00 509 1527 0.740 10000.000 0.000 0.610 15000.000 0.000 -1.011
106 318.00 1500.00 548 1513 0.740 10000.000 0.000 0.610 15000.000 0.000 -1.011
107 321.00 1500.00 542 1415 0.740 10000.000 0.000 0.610 15000.000 0.000 -1.011
108 324.00 1500.00 579 1510 0.740 10000.000 0.000 0.610 15000.000 0.000 -1.011
109 327.00 1500.00 582 1568 0.740 10000.000 0.000 0.610 15000.000 0.000 -1.011
110 330.00 1500.00 566 1424 0.740 10000.000 0.000 0.610 15000.000 0.000 -1.011
111 333.00 1500.00 580 1456 0.740 10000.000 0.000 0.610 15000.000 0.000 -1.011
112 336.00 1500.00 588 1548 0.740 10000.000 0.000 0.610 15000.000 0.000 -1.011
113 339.00 1500.00 539 1410 0.740 10000.000 0.000 0.610 15000.000 0.000 -1.011
114 342.00 1500.00 568 1497 0.740 10000.000 0.000 0.610 15000.000 0.000 -1.011
115 345.00 1500.00 554 1448 0.740 10000.000 0.000 0.610 15000.000 0.000 -1.011
116 348.00 1500.00 539 1446 0.740 10000.000 0.000 0.610 15000.000 0.000 -1.011
117 351.00 1500.00 532 1489 0.740 10000.000 0.000 0.610 15000.000 0.000 -1.011
118 354.00 1500.00 601 1462 0.740 10000.000 0.000 0.610 15000.000 0.000 -1.011
119 357.00 1500.00 524 1407 0.740 10000.000 0.000 0.610 15000.000 0.000 -1.011
120 360.00 1500.00 590 1474 0.740 10000.000 0.000 0.610 15000.000 0.000 -1.011
121 363.00 1500.00 541 1465 0.740 10000.000 0.000 0.610 15000.000 0.000 -1.011
122 366.00 1500.00 536 1538 0.740 10000.000 0.000 0.610 15000.000 0.000 -1.011
123 369.00 1500.00 541 1493 0.740 10000.000 0.000 0.610 15000.000 0.000 -1.011
124 372.00 1500.00 546 1519 0.740 10000.000 0.000 0.610 15000.000 0.000 -1.011
125 375.00 1500.00 558 1438 0.740 10000.000 0.000 0.610 15000.000 0.000 -1.011
126 378.00 1500.00 545 1548 0.740 10000.000 0.000 0.610 15000.000 0.000 -1.011
127 381.00 1500.00 558 1475 0.740 10000.000 0.000 0.610 15000.000 0.000 -1.011
128 384.00 1500.00 557 1468 0.740 10000.000 0.000 0.610 15000.000 0.000 -1.011
129 387.00 1500.00 540 1520 0.740 10000.000 0.000 0.610 15000.000 0.000 -1.011
130 390.00 1500.00 579 1509 0.740 10000.000 0.000 0.610 15000.000 0.000 -1.011
131 393.00 1500.00 546 1477 0.740 10000.000 0.000 0.610 15000.000 0.000 -1.011
132 396.00 1500.00 580 1521 0.740 10000.000 0.000 0.610 15000.000 0.000 -1.011
133 399.00 1500.00 551 1531 0.740 10000.000 0.000 0.610 15000.000 0.000 -1.011
134 402.00 1500.00 509 1525 0.740 10000.000 0.000 0.610 15000.000 0.000 -1.011
135 405.00 1500.00 541 1510 0.740 10000.000 0.000 0.610 15000.000 0.000 -1.011
136 408.00 1500.00 586 1607 0.740 10000.000 0.000 0.610 15000.000 0.000 -1.011
137 411.00 1500.00 554 1513 0.740 10000.000 0.000 0.610 15000.000 0.000 -1.011
138 414.00 1500.00 553 1545 0.740 10000.000 0.000 0.610 15000.000 0.000 -1.011
139 417.00 1500.00 546 1471 0.740 10000.000 0.000 0.610 15000.000 0.000 -1.011
140 420.00 1500.00 532 1494 0.740 10000.000 0.000 0.610 15000.000 0.000 -1.011
141 423.00 1500.00 540 1412 0.740 10000.000 0.000 0.610 15000.000 0.000 -1.011
142 426.00 1500.00 528 1468 0.740 10000.000 0.000 0.610 15000.000 0.000 -1.011
143 429.00 1500.00 565 1472 0.740 10000.000 0.000 0.610 15000.000 0.000 -1.011
144 432.00 1500.00 537 1553 0.740 10000.000 0.000 0.610 15000.000 0.000 -1.011
