# BinNR microsec tot-time (s)  O-Beam AUX Ampl(V) f(Hz) phase(deg) chi(pos)
0 0.00 1200.00 87 331 3.670 10000.000 0.000 -0.110
1 3.00 1200.00 202 719 3.670 10000.000 0.000 -0.110
2 6.00 1200.00 174 733 3.670 10000.000 0.000 -0.110
3 9.00 1200.00 157 714 3.670 10000.000 0.000 -0.110
4 12.00 1200.00 198 647 3.670 10000.000 0.000 -0.110
5 15.00 1200.00 224 573 3.670 10000.000 0.000 -0.110
6 18.00 1200.00 221 570 3.670 10000.000 0.000 -0.110
7 21.00 1200.00 226 477 3.670 10000.000 0.000 -0.110
8 24.00 1200.00 254 480 3.670 10000.000 0.000 -0.110
9 27.00 1200.00 234 422 3.670 10000.000 0.000 -0.110
10 30.00 1200.00 222 408 3.670 10000.000 0.000 -0.110
11 33.00 1200.00 219 470 3.670 10000.000 0.000 -0.110
12 36.00 1200.00 210 568 3.670 10000.000 0.000 -0.110
13 39.00 1200.00 213 545 3.670 10000.000 0.000 -0.110
14 42.00 1200.00 179 676 3.670 10000.000 0.000 -0.110
15 45.00 1200.00 184 706 3.670 10000.000 0.000 -0.110
16 48.00 1200.00 185 747 3.670 10000.000 0.000 -0.110
17 51.00 1200.00 191 615 3.670 10000.000 0.000 -0.110
18 54.00 1200.00 195 613 3.670 10000.000 0.000 -0.110
19 57.00 1200.00 172 532 3.670 10000.000 0.000 -0.110
20 60.00 1200.00 206 471 3.670 10000.000 0.000 -0.110
21 63.00 1200.00 185 432 3.670 10000.000 0.000 -0.110
22 66.00 1200.00 212 482 3.670 10000.000 0.000 -0.110
23 69.00 1200.00 225 430 3.670 10000.000 0.000 -0.110
24 72.00 1200.00 243 482 3.670 10000.000 0.000 -0.110
25 75.00 1200.00 228 536 3.670 10000.000 0.000 -0.110
26 78.00 1200.00 250 639 3.670 10000.000 0.000 -0.110
27 81.00 1200.00 259 638 3.670 10000.000 0.000 -0.110
28 84.00 1200.00 260 723 3.670 10000.000 0.000 -0.110
29 87.00 1200.00 215 755 3.670 10000.000 0.000 -0.110
30 90.00 1200.00 192 716 3.670 10000.000 0.000 -0.110
31 93.00 1200.00 166 674 3.670 10000.000 0.000 -0.110
32 96.00 1200.00 198 582 3.670 10000.000 0.000 -0.110
33 99.00 1200.00 185 532 3.670 10000.000 0.000 -0.110
34 102.00 1200.00 178 382 3.670 10000.000 0.000 -0.110
35 105.00 1200.00 184 335 3.670 10000.000 0.000 -0.110
36 108.00 1200.00 176 277 3.670 10000.000 0.000 -0.110
37 111.00 1200.00 182 254 3.670 10000.000 0.000 -0.110
38 114.00 1200.00 226 235 3.670 10000.000 0.000 -0.110
39 117.00 1200.00 214 231 3.670 10000.000 0.000 -0.110
40 120.00 1200.00 218 246 3.670 10000.000 0.000 -0.110
41 123.00 1200.00 234 272 3.670 10000.000 0.000 -0.110
42 126.00 1200.00 242 336 3.670 10000.000 0.000 -0.110
43 129.00 1200.00 233 386 3.670 10000.000 0.000 -0.110
44 132.00 1200.00 234 526 3.670 10000.000 0.000 -0.110
45 135.00 1200.00 237 539 3.670 10000.000 0.000 -0.110
46 138.00 1200.00 188 673 3.670 10000.000 0.000 -0.110
47 141.00 1200.00 182 662 3.670 10000.000 0.000 -0.110
48 144.00 1200.00 190 716 3.670 10000.000 0.000 -0.110
49 147.00 1200.00 155 698 3.670 10000.000 0.000 -0.110
50 150.00 1200.00 179 663 3.670 10000.000 0.000 -0.110
51 153.00 1200.00 150 560 3.670 10000.000 0.000 -0.110
52 156.00 1200.00 182 545 3.670 10000.000 0.000 -0.110
53 159.00 1200.00 179 495 3.670 10000.000 0.000 -0.110
54 162.00 1200.00 203 488 3.670 10000.000 0.000 -0.110
55 165.00 1200.00 198 464 3.670 10000.000 0.000 -0.110
56 168.00 1200.00 254 491 3.670 10000.000 0.000 -0.110
57 171.00 1200.00 240 492 3.670 10000.000 0.000 -0.110
58 174.00 1200.00 241 541 3.670 10000.000 0.000 -0.110
59 177.00 1200.00 250 627 3.670 10000.000 0.000 -0.110
60 180.00 1200.00 240 631 3.670 10000.000 0.000 -0.110
61 183.00 1200.00 223 686 3.670 10000.000 0.000 -0.110
62 186.00 1200.00 201 754 3.670 10000.000 0.000 -0.110
63 189.00 1200.00 208 731 3.670 10000.000 0.000 -0.110
64 192.00 1200.00 186 705 3.670 10000.000 0.000 -0.110
65 195.00 1200.00 177 537 3.670 10000.000 0.000 -0.110
66 198.00 1200.00 165 507 3.670 10000.000 0.000 -0.110
67 201.00 1200.00 164 404 3.670 10000.000 0.000 -0.110
68 204.00 1200.00 177 351 3.670 10000.000 0.000 -0.110
69 207.00 1200.00 169 295 3.670 10000.000 0.000 -0.110
70 210.00 1200.00 159 242 3.670 10000.000 0.000 -0.110
71 213.00 1200.00 203 251 3.670 10000.000 0.000 -0.110
72 216.00 1200.00 201 189 3.670 10000.000 0.000 -0.110
73 219.00 1200.00 215 238 3.670 10000.000 0.000 -0.110
74 222.00 1200.00 251 268 3.670 10000.000 0.000 -0.110
75 225.00 1200.00 228 321 3.670 10000.000 0.000 -0.110
76 228.00 1200.00 244 443 3.670 10000.000 0.000 -0.110
77 231.00 1200.00 249 494 3.670 10000.000 0.000 -0.110
78 234.00 1200.00 233 552 3.670 10000.000 0.000 -0.110
79 237.00 1200.00 234 625 3.670 10000.000 0.000 -0.110
80 240.00 1200.00 213 701 3.670 10000.000 0.000 -0.110
81 243.00 1200.00 209 704 3.670 10000.000 0.000 -0.110
82 246.00 1200.00 217 701 3.670 10000.000 0.000 -0.110
83 249.00 1200.00 228 644 3.670 10000.000 0.000 -0.110
84 252.00 1200.00 220 625 3.670 10000.000 0.000 -0.110
85 255.00 1200.00 225 591 3.670 10000.000 0.000 -0.110
86 258.00 1200.00 267 529 3.670 10000.000 0.000 -0.110
87 261.00 1200.00 252 475 3.670 10000.000 0.000 -0.110
88 264.00 1200.00 254 468 3.670 10000.000 0.000 -0.110
89 267.00 1200.00 257 446 3.670 10000.000 0.000 -0.110
90 270.00 1200.00 268 532 3.670 10000.000 0.000 -0.110
91 273.00 1200.00 290 528 3.670 10000.000 0.000 -0.110
92 276.00 1200.00 270 507 3.670 10000.000 0.000 -0.110
93 279.00 1200.00 287 641 3.670 10000.000 0.000 -0.110
94 282.00 1200.00 265 668 3.670 10000.000 0.000 -0.110
95 285.00 1200.00 254 729 3.670 10000.000 0.000 -0.110
96 288.00 1200.00 228 661 3.670 10000.000 0.000 -0.110
97 291.00 1200.00 219 683 3.670 10000.000 0.000 -0.110
98 294.00 1200.00 256 646 3.670 10000.000 0.000 -0.110
99 297.00 1200.00 218 522 3.670 10000.000 0.000 -0.110
100 300.00 1200.00 213 494 3.670 10000.000 0.000 -0.110
101 303.00 1200.00 206 386 3.670 10000.000 0.000 -0.110
102 306.00 1200.00 215 335 3.670 10000.000 0.000 -0.110
103 309.00 1200.00 281 278 3.670 10000.000 0.000 -0.110
104 312.00 1200.00 279 232 3.670 10000.000 0.000 -0.110
105 315.00 1200.00 250 225 3.670 10000.000 0.000 -0.110
106 318.00 1200.00 214 242 3.670 10000.000 0.000 -0.110
107 321.00 1200.00 210 259 3.670 10000.000 0.000 -0.110
108 324.00 1200.00 200 328 3.670 10000.000 0.000 -0.110
109 327.00 1200.00 184 358 3.670 10000.000 0.000 -0.110
110 330.00 1200.00 193 433 3.670 10000.000 0.000 -0.110
111 333.00 1200.00 163 505 3.670 10000.000 0.000 -0.110
112 336.00 1200.00 153 600 3.670 10000.000 0.000 -0.110
113 339.00 1200.00 159 687 3.670 10000.000 0.000 -0.110
114 342.00 1200.00 194 723 3.670 10000.000 0.000 -0.110
115 345.00 1200.00 159 716 3.670 10000.000 0.000 -0.110
116 348.00 1200.00 210 666 3.670 10000.000 0.000 -0.110
117 351.00 1200.00 204 638 3.670 10000.000 0.000 -0.110
118 354.00 1200.00 240 570 3.670 10000.000 0.000 -0.110
119 357.00 1200.00 247 515 3.670 10000.000 0.000 -0.110
120 360.00 1200.00 243 502 3.670 10000.000 0.000 -0.110
121 363.00 1200.00 223 482 3.670 10000.000 0.000 -0.110
122 366.00 1200.00 227 516 3.670 10000.000 0.000 -0.110
123 369.00 1200.00 208 505 3.670 10000.000 0.000 -0.110
124 372.00 1200.00 231 566 3.670 10000.000 0.000 -0.110
125 375.00 1200.00 228 555 3.670 10000.000 0.000 -0.110
126 378.00 1200.00 163 646 3.670 10000.000 0.000 -0.110
127 381.00 1200.00 178 638 3.670 10000.000 0.000 -0.110
128 384.00 1200.00 163 725 3.670 10000.000 0.000 -0.110
129 387.00 1200.00 169 723 3.670 10000.000 0.000 -0.110
130 390.00 1200.00 162 694 3.670 10000.000 0.000 -0.110
131 393.00 1200.00 183 598 3.670 10000.000 0.000 -0.110
132 396.00 1200.00 208 606 3.670 10000.000 0.000 -0.110
133 399.00 1200.00 217 468 3.670 10000.000 0.000 -0.110
134 402.00 1200.00 227 395 3.670 10000.000 0.000 -0.110
135 405.00 1200.00 237 334 3.670 10000.000 0.000 -0.110
136 408.00 1200.00 256 295 3.670 10000.000 0.000 -0.110
137 411.00 1200.00 254 355 3.670 10000.000 0.000 -0.110
138 414.00 1200.00 237 442 3.670 10000.000 0.000 -0.110
139 417.00 1200.00 209 462 3.670 10000.000 0.000 -0.110
140 420.00 1200.00 225 541 3.670 10000.000 0.000 -0.110
141 423.00 1200.00 191 600 3.670 10000.000 0.000 -0.110
