# BinNR microsec tot-time (s)  O-Beam AUX Ampl(V) f(Hz) phase(deg) chi(pos)
0 0.00 1200.01 112 132 1.880 10000.000 0.000 0.220
1 3.00 1200.01 246 292 1.880 10000.000 0.000 0.220
2 6.00 1200.01 230 286 1.880 10000.000 0.000 0.220
3 9.00 1200.01 228 253 1.880 10000.000 0.000 0.220
4 12.00 1200.01 237 219 1.880 10000.000 0.000 0.220
5 15.00 1200.01 206 209 1.880 10000.000 0.000 0.220
6 18.00 1200.01 234 159 1.880 10000.000 0.000 0.220
7 21.00 1200.01 184 146 1.880 10000.000 0.000 0.220
8 24.00 1200.01 185 151 1.880 10000.000 0.000 0.220
9 27.00 1200.01 148 142 1.880 10000.000 0.000 0.220
10 30.00 1200.01 162 151 1.880 10000.000 0.000 0.220
11 33.00 1200.01 118 141 1.880 10000.000 0.000 0.220
12 36.00 1200.01 125 156 1.880 10000.000 0.000 0.220
13 39.00 1200.01 126 199 1.880 10000.000 0.000 0.220
14 42.00 1200.01 100 234 1.880 10000.000 0.000 0.220
15 45.00 1200.01 100 301 1.880 10000.000 0.000 0.220
16 48.00 1200.01 89 350 1.880 10000.000 0.000 0.220
17 51.00 1200.01 112 375 1.880 10000.000 0.000 0.220
18 54.00 1200.01 104 455 1.880 10000.000 0.000 0.220
19 57.00 1200.01 107 484 1.880 10000.000 0.000 0.220
20 60.00 1200.01 107 531 1.880 10000.000 0.000 0.220
21 63.00 1200.01 130 548 1.880 10000.000 0.000 0.220
22 66.00 1200.01 113 545 1.880 10000.000 0.000 0.220
23 69.00 1200.01 129 514 1.880 10000.000 0.000 0.220
24 72.00 1200.01 159 549 1.880 10000.000 0.000 0.220
25 75.00 1200.01 170 519 1.880 10000.000 0.000 0.220
26 78.00 1200.01 166 457 1.880 10000.000 0.000 0.220
27 81.00 1200.01 187 388 1.880 10000.000 0.000 0.220
28 84.00 1200.01 193 344 1.880 10000.000 0.000 0.220
29 87.00 1200.01 202 288 1.880 10000.000 0.000 0.220
30 90.00 1200.01 201 273 1.880 10000.000 0.000 0.220
31 93.00 1200.01 232 202 1.880 10000.000 0.000 0.220
32 96.00 1200.01 230 164 1.880 10000.000 0.000 0.220
33 99.00 1200.01 231 133 1.880 10000.000 0.000 0.220
34 102.00 1200.01 244 122 1.880 10000.000 0.000 0.220
35 105.00 1200.01 221 129 1.880 10000.000 0.000 0.220
36 108.00 1200.01 254 114 1.880 10000.000 0.000 0.220
37 111.00 1200.01 251 98 1.880 10000.000 0.000 0.220
38 114.00 1200.01 205 125 1.880 10000.000 0.000 0.220
39 117.00 1200.01 215 101 1.880 10000.000 0.000 0.220
40 120.00 1200.01 204 110 1.880 10000.000 0.000 0.220
41 123.00 1200.01 191 108 1.880 10000.000 0.000 0.220
42 126.00 1200.01 180 135 1.880 10000.000 0.000 0.220
43 129.00 1200.01 163 128 1.880 10000.000 0.000 0.220
44 132.00 1200.01 159 157 1.880 10000.000 0.000 0.220
45 135.00 1200.01 128 182 1.880 10000.000 0.000 0.220
46 138.00 1200.01 132 211 1.880 10000.000 0.000 0.220
47 141.00 1200.01 124 268 1.880 10000.000 0.000 0.220
48 144.00 1200.01 103 305 1.880 10000.000 0.000 0.220
49 147.00 1200.01 102 361 1.880 10000.000 0.000 0.220
50 150.00 1200.01 105 437 1.880 10000.000 0.000 0.220
51 153.00 1200.01 80 471 1.880 10000.000 0.000 0.220
52 156.00 1200.01 101 505 1.880 10000.000 0.000 0.220
53 159.00 1200.01 98 481 1.880 10000.000 0.000 0.220
54 162.00 1200.01 131 565 1.880 10000.000 0.000 0.220
55 165.00 1200.01 114 502 1.880 10000.000 0.000 0.220
56 168.00 1200.01 115 528 1.880 10000.000 0.000 0.220
57 171.00 1200.01 133 512 1.880 10000.000 0.000 0.220
58 174.00 1200.01 154 461 1.880 10000.000 0.000 0.220
59 177.00 1200.01 162 429 1.880 10000.000 0.000 0.220
60 180.00 1200.01 205 411 1.880 10000.000 0.000 0.220
61 183.00 1200.01 229 374 1.880 10000.000 0.000 0.220
62 186.00 1200.01 223 317 1.880 10000.000 0.000 0.220
63 189.00 1200.01 234 269 1.880 10000.000 0.000 0.220
64 192.00 1200.01 236 214 1.880 10000.000 0.000 0.220
65 195.00 1200.01 245 169 1.880 10000.000 0.000 0.220
66 198.00 1200.01 240 144 1.880 10000.000 0.000 0.220
67 201.00 1200.01 246 119 1.880 10000.000 0.000 0.220
68 204.00 1200.01 261 110 1.880 10000.000 0.000 0.220
69 207.00 1200.01 255 112 1.880 10000.000 0.000 0.220
70 210.00 1200.01 245 104 1.880 10000.000 0.000 0.220
71 213.00 1200.01 216 106 1.880 10000.000 0.000 0.220
72 216.00 1200.01 204 112 1.880 10000.000 0.000 0.220
73 219.00 1200.01 190 114 1.880 10000.000 0.000 0.220
74 222.00 1200.01 186 129 1.880 10000.000 0.000 0.220
75 225.00 1200.01 180 130 1.880 10000.000 0.000 0.220
76 228.00 1200.01 160 131 1.880 10000.000 0.000 0.220
77 231.00 1200.01 128 162 1.880 10000.000 0.000 0.220
78 234.00 1200.01 134 174 1.880 10000.000 0.000 0.220
79 237.00 1200.01 122 224 1.880 10000.000 0.000 0.220
80 240.00 1200.01 129 247 1.880 10000.000 0.000 0.220
81 243.00 1200.01 92 300 1.880 10000.000 0.000 0.220
82 246.00 1200.01 123 358 1.880 10000.000 0.000 0.220
83 249.00 1200.01 138 408 1.880 10000.000 0.000 0.220
84 252.00 1200.01 131 487 1.880 10000.000 0.000 0.220
85 255.00 1200.01 107 455 1.880 10000.000 0.000 0.220
86 258.00 1200.01 142 493 1.880 10000.000 0.000 0.220
87 261.00 1200.01 143 524 1.880 10000.000 0.000 0.220
88 264.00 1200.01 173 514 1.880 10000.000 0.000 0.220
89 267.00 1200.01 141 536 1.880 10000.000 0.000 0.220
90 270.00 1200.01 173 551 1.880 10000.000 0.000 0.220
91 273.00 1200.01 169 518 1.880 10000.000 0.000 0.220
92 276.00 1200.01 163 495 1.880 10000.000 0.000 0.220
93 279.00 1200.01 181 421 1.880 10000.000 0.000 0.220
94 282.00 1200.01 156 399 1.880 10000.000 0.000 0.220
95 285.00 1200.01 137 332 1.880 10000.000 0.000 0.220
96 288.00 1200.01 137 269 1.880 10000.000 0.000 0.220
97 291.00 1200.01 139 240 1.880 10000.000 0.000 0.220
98 294.00 1200.01 129 178 1.880 10000.000 0.000 0.220
99 297.00 1200.01 146 178 1.880 10000.000 0.000 0.220
100 300.00 1200.01 127 154 1.880 10000.000 0.000 0.220
101 303.00 1200.01 142 117 1.880 10000.000 0.000 0.220
102 306.00 1200.01 140 99 1.880 10000.000 0.000 0.220
103 309.00 1200.01 141 120 1.880 10000.000 0.000 0.220
104 312.00 1200.01 166 105 1.880 10000.000 0.000 0.220
105 315.00 1200.01 158 99 1.880 10000.000 0.000 0.220
106 318.00 1200.01 165 107 1.880 10000.000 0.000 0.220
107 321.00 1200.01 216 101 1.880 10000.000 0.000 0.220
108 324.00 1200.01 224 141 1.880 10000.000 0.000 0.220
109 327.00 1200.01 228 110 1.880 10000.000 0.000 0.220
110 330.00 1200.01 240 144 1.880 10000.000 0.000 0.220
111 333.00 1200.01 227 165 1.880 10000.000 0.000 0.220
112 336.00 1200.01 237 175 1.880 10000.000 0.000 0.220
113 339.00 1200.01 221 226 1.880 10000.000 0.000 0.220
114 342.00 1200.01 267 323 1.880 10000.000 0.000 0.220
115 345.00 1200.01 263 303 1.880 10000.000 0.000 0.220
116 348.00 1200.01 233 363 1.880 10000.000 0.000 0.220
117 351.00 1200.01 224 454 1.880 10000.000 0.000 0.220
118 354.00 1200.01 199 504 1.880 10000.000 0.000 0.220
119 357.00 1200.01 186 540 1.880 10000.000 0.000 0.220
120 360.00 1200.01 175 555 1.880 10000.000 0.000 0.220
121 363.00 1200.01 167 520 1.880 10000.000 0.000 0.220
122 366.00 1200.01 149 556 1.880 10000.000 0.000 0.220
123 369.00 1200.01 128 526 1.880 10000.000 0.000 0.220
124 372.00 1200.01 119 521 1.880 10000.000 0.000 0.220
125 375.00 1200.01 124 497 1.880 10000.000 0.000 0.220
126 378.00 1200.01 112 448 1.880 10000.000 0.000 0.220
127 381.00 1200.01 113 422 1.880 10000.000 0.000 0.220
128 384.00 1200.01 106 345 1.880 10000.000 0.000 0.220
129 387.00 1200.01 101 314 1.880 10000.000 0.000 0.220
130 390.00 1200.01 105 257 1.880 10000.000 0.000 0.220
131 393.00 1200.01 119 189 1.880 10000.000 0.000 0.220
132 396.00 1200.01 140 155 1.880 10000.000 0.000 0.220
133 399.00 1200.01 131 143 1.880 10000.000 0.000 0.220
134 402.00 1200.01 110 115 1.880 10000.000 0.000 0.220
135 405.00 1200.01 141 119 1.880 10000.000 0.000 0.220
136 408.00 1200.01 162 108 1.880 10000.000 0.000 0.220
137 411.00 1200.01 148 116 1.880 10000.000 0.000 0.220
138 414.00 1200.01 192 119 1.880 10000.000 0.000 0.220
139 417.00 1200.01 210 141 1.880 10000.000 0.000 0.220
140 420.00 1200.01 228 162 1.880 10000.000 0.000 0.220
141 423.00 1200.01 198 207 1.880 10000.000 0.000 0.220
