# BinNR microsec tot-time (s)  O-Beam AUX Ampl(V) f(Hz) phase(deg) chi(pos)
0 0.00 1200.01 119 202 1.300 10000.000 0.000 -0.011
1 3.00 1200.01 260 371 1.300 10000.000 0.000 -0.011
2 6.00 1200.01 224 393 1.300 10000.000 0.000 -0.011
3 9.00 1200.01 255 370 1.300 10000.000 0.000 -0.011
4 12.00 1200.01 255 344 1.300 10000.000 0.000 -0.011
5 15.00 1200.01 253 359 1.300 10000.000 0.000 -0.011
6 18.00 1200.01 247 312 1.300 10000.000 0.000 -0.011
7 21.00 1200.01 196 283 1.300 10000.000 0.000 -0.011
8 24.00 1200.01 233 263 1.300 10000.000 0.000 -0.011
9 27.00 1200.01 187 274 1.300 10000.000 0.000 -0.011
10 30.00 1200.01 200 304 1.300 10000.000 0.000 -0.011
11 33.00 1200.01 176 265 1.300 10000.000 0.000 -0.011
12 36.00 1200.01 149 265 1.300 10000.000 0.000 -0.011
13 39.00 1200.01 164 372 1.300 10000.000 0.000 -0.011
14 42.00 1200.01 161 362 1.300 10000.000 0.000 -0.011
15 45.00 1200.01 161 387 1.300 10000.000 0.000 -0.011
16 48.00 1200.01 176 450 1.300 10000.000 0.000 -0.011
17 51.00 1200.01 164 478 1.300 10000.000 0.000 -0.011
18 54.00 1200.01 127 563 1.300 10000.000 0.000 -0.011
19 57.00 1200.01 149 495 1.300 10000.000 0.000 -0.011
20 60.00 1200.01 146 538 1.300 10000.000 0.000 -0.011
21 63.00 1200.01 175 554 1.300 10000.000 0.000 -0.011
22 66.00 1200.01 164 568 1.300 10000.000 0.000 -0.011
23 69.00 1200.01 201 587 1.300 10000.000 0.000 -0.011
24 72.00 1200.01 190 599 1.300 10000.000 0.000 -0.011
25 75.00 1200.01 201 525 1.300 10000.000 0.000 -0.011
26 78.00 1200.01 214 514 1.300 10000.000 0.000 -0.011
27 81.00 1200.01 217 501 1.300 10000.000 0.000 -0.011
28 84.00 1200.01 223 479 1.300 10000.000 0.000 -0.011
29 87.00 1200.01 233 430 1.300 10000.000 0.000 -0.011
30 90.00 1200.01 249 376 1.300 10000.000 0.000 -0.011
31 93.00 1200.01 260 340 1.300 10000.000 0.000 -0.011
32 96.00 1200.01 259 314 1.300 10000.000 0.000 -0.011
33 99.00 1200.01 267 266 1.300 10000.000 0.000 -0.011
34 102.00 1200.01 240 223 1.300 10000.000 0.000 -0.011
35 105.00 1200.01 259 220 1.300 10000.000 0.000 -0.011
36 108.00 1200.01 285 210 1.300 10000.000 0.000 -0.011
37 111.00 1200.01 226 209 1.300 10000.000 0.000 -0.011
38 114.00 1200.01 256 217 1.300 10000.000 0.000 -0.011
39 117.00 1200.01 217 201 1.300 10000.000 0.000 -0.011
40 120.00 1200.01 230 218 1.300 10000.000 0.000 -0.011
41 123.00 1200.01 210 237 1.300 10000.000 0.000 -0.011
42 126.00 1200.01 222 287 1.300 10000.000 0.000 -0.011
43 129.00 1200.01 198 238 1.300 10000.000 0.000 -0.011
44 132.00 1200.01 189 314 1.300 10000.000 0.000 -0.011
45 135.00 1200.01 166 337 1.300 10000.000 0.000 -0.011
46 138.00 1200.01 180 357 1.300 10000.000 0.000 -0.011
47 141.00 1200.01 163 423 1.300 10000.000 0.000 -0.011
48 144.00 1200.01 158 401 1.300 10000.000 0.000 -0.011
49 147.00 1200.01 162 437 1.300 10000.000 0.000 -0.011
50 150.00 1200.01 187 535 1.300 10000.000 0.000 -0.011
51 153.00 1200.01 153 508 1.300 10000.000 0.000 -0.011
52 156.00 1200.01 165 502 1.300 10000.000 0.000 -0.011
53 159.00 1200.01 162 555 1.300 10000.000 0.000 -0.011
54 162.00 1200.01 150 562 1.300 10000.000 0.000 -0.011
55 165.00 1200.01 180 538 1.300 10000.000 0.000 -0.011
56 168.00 1200.01 181 537 1.300 10000.000 0.000 -0.011
57 171.00 1200.01 213 595 1.300 10000.000 0.000 -0.011
58 174.00 1200.01 204 516 1.300 10000.000 0.000 -0.011
59 177.00 1200.01 189 530 1.300 10000.000 0.000 -0.011
60 180.00 1200.01 247 490 1.300 10000.000 0.000 -0.011
61 183.00 1200.01 227 476 1.300 10000.000 0.000 -0.011
62 186.00 1200.01 230 439 1.300 10000.000 0.000 -0.011
63 189.00 1200.01 242 399 1.300 10000.000 0.000 -0.011
64 192.00 1200.01 246 382 1.300 10000.000 0.000 -0.011
65 195.00 1200.01 251 318 1.300 10000.000 0.000 -0.011
66 198.00 1200.01 242 279 1.300 10000.000 0.000 -0.011
67 201.00 1200.01 282 275 1.300 10000.000 0.000 -0.011
68 204.00 1200.01 275 217 1.300 10000.000 0.000 -0.011
69 207.00 1200.01 241 225 1.300 10000.000 0.000 -0.011
70 210.00 1200.01 227 222 1.300 10000.000 0.000 -0.011
71 213.00 1200.01 229 193 1.300 10000.000 0.000 -0.011
72 216.00 1200.01 234 200 1.300 10000.000 0.000 -0.011
73 219.00 1200.01 223 228 1.300 10000.000 0.000 -0.011
74 222.00 1200.01 234 216 1.300 10000.000 0.000 -0.011
75 225.00 1200.01 211 222 1.300 10000.000 0.000 -0.011
76 228.00 1200.01 207 231 1.300 10000.000 0.000 -0.011
77 231.00 1200.01 207 279 1.300 10000.000 0.000 -0.011
78 234.00 1200.01 187 301 1.300 10000.000 0.000 -0.011
79 237.00 1200.01 161 357 1.300 10000.000 0.000 -0.011
80 240.00 1200.01 181 421 1.300 10000.000 0.000 -0.011
81 243.00 1200.01 164 415 1.300 10000.000 0.000 -0.011
82 246.00 1200.01 180 450 1.300 10000.000 0.000 -0.011
83 249.00 1200.01 177 490 1.300 10000.000 0.000 -0.011
84 252.00 1200.01 194 446 1.300 10000.000 0.000 -0.011
85 255.00 1200.01 200 559 1.300 10000.000 0.000 -0.011
86 258.00 1200.01 181 558 1.300 10000.000 0.000 -0.011
87 261.00 1200.01 179 582 1.300 10000.000 0.000 -0.011
88 264.00 1200.01 214 563 1.300 10000.000 0.000 -0.011
89 267.00 1200.01 191 572 1.300 10000.000 0.000 -0.011
90 270.00 1200.01 225 616 1.300 10000.000 0.000 -0.011
91 273.00 1200.01 211 621 1.300 10000.000 0.000 -0.011
92 276.00 1200.01 236 534 1.300 10000.000 0.000 -0.011
93 279.00 1200.01 221 491 1.300 10000.000 0.000 -0.011
94 282.00 1200.01 198 516 1.300 10000.000 0.000 -0.011
95 285.00 1200.01 204 417 1.300 10000.000 0.000 -0.011
96 288.00 1200.01 178 451 1.300 10000.000 0.000 -0.011
97 291.00 1200.01 182 353 1.300 10000.000 0.000 -0.011
98 294.00 1200.01 198 344 1.300 10000.000 0.000 -0.011
99 297.00 1200.01 175 277 1.300 10000.000 0.000 -0.011
100 300.00 1200.01 190 269 1.300 10000.000 0.000 -0.011
101 303.00 1200.01 187 234 1.300 10000.000 0.000 -0.011
102 306.00 1200.01 193 216 1.300 10000.000 0.000 -0.011
103 309.00 1200.01 191 194 1.300 10000.000 0.000 -0.011
104 312.00 1200.01 206 179 1.300 10000.000 0.000 -0.011
105 315.00 1200.01 206 192 1.300 10000.000 0.000 -0.011
106 318.00 1200.01 216 220 1.300 10000.000 0.000 -0.011
107 321.00 1200.01 241 208 1.300 10000.000 0.000 -0.011
108 324.00 1200.01 243 219 1.300 10000.000 0.000 -0.011
109 327.00 1200.01 241 249 1.300 10000.000 0.000 -0.011
110 330.00 1200.01 272 276 1.300 10000.000 0.000 -0.011
111 333.00 1200.01 249 299 1.300 10000.000 0.000 -0.011
112 336.00 1200.01 245 335 1.300 10000.000 0.000 -0.011
113 339.00 1200.01 262 373 1.300 10000.000 0.000 -0.011
114 342.00 1200.01 257 409 1.300 10000.000 0.000 -0.011
115 345.00 1200.01 247 442 1.300 10000.000 0.000 -0.011
116 348.00 1200.01 248 484 1.300 10000.000 0.000 -0.011
117 351.00 1200.01 247 509 1.300 10000.000 0.000 -0.011
118 354.00 1200.01 226 545 1.300 10000.000 0.000 -0.011
119 357.00 1200.01 215 557 1.300 10000.000 0.000 -0.011
120 360.00 1200.01 238 577 1.300 10000.000 0.000 -0.011
121 363.00 1200.01 187 565 1.300 10000.000 0.000 -0.011
122 366.00 1200.01 196 589 1.300 10000.000 0.000 -0.011
123 369.00 1200.01 167 564 1.300 10000.000 0.000 -0.011
124 372.00 1200.01 168 574 1.300 10000.000 0.000 -0.011
125 375.00 1200.01 177 531 1.300 10000.000 0.000 -0.011
126 378.00 1200.01 164 506 1.300 10000.000 0.000 -0.011
127 381.00 1200.01 176 492 1.300 10000.000 0.000 -0.011
128 384.00 1200.01 147 443 1.300 10000.000 0.000 -0.011
129 387.00 1200.01 130 384 1.300 10000.000 0.000 -0.011
130 390.00 1200.01 169 363 1.300 10000.000 0.000 -0.011
131 393.00 1200.01 178 320 1.300 10000.000 0.000 -0.011
132 396.00 1200.01 158 304 1.300 10000.000 0.000 -0.011
133 399.00 1200.01 178 296 1.300 10000.000 0.000 -0.011
134 402.00 1200.01 205 262 1.300 10000.000 0.000 -0.011
135 405.00 1200.01 197 229 1.300 10000.000 0.000 -0.011
136 408.00 1200.01 205 234 1.300 10000.000 0.000 -0.011
137 411.00 1200.01 200 231 1.300 10000.000 0.000 -0.011
138 414.00 1200.01 206 251 1.300 10000.000 0.000 -0.011
139 417.00 1200.01 225 298 1.300 10000.000 0.000 -0.011
140 420.00 1200.01 254 299 1.300 10000.000 0.000 -0.011
141 423.00 1200.01 239 348 1.300 10000.000 0.000 -0.011
