# BinNR microsec tot-time (s)  O-Beam AUX Ampl(V) f(Hz) phase(deg) chi(pos)
0 0.00 1200.01 142 347 0.235 10000.000 0.000 -0.560
1 3.00 1200.01 265 637 0.235 10000.000 0.000 -0.560
2 6.00 1200.01 224 695 0.235 10000.000 0.000 -0.560
3 9.00 1200.01 283 712 0.235 10000.000 0.000 -0.560
4 12.00 1200.01 253 681 0.235 10000.000 0.000 -0.560
5 15.00 1200.01 253 643 0.235 10000.000 0.000 -0.560
6 18.00 1200.01 276 630 0.235 10000.000 0.000 -0.560
7 21.00 1200.01 301 677 0.235 10000.000 0.000 -0.560
8 24.00 1200.01 286 664 0.235 10000.000 0.000 -0.560
9 27.00 1200.01 258 634 0.235 10000.000 0.000 -0.560
10 30.00 1200.01 282 699 0.235 10000.000 0.000 -0.560
11 33.00 1200.01 267 676 0.235 10000.000 0.000 -0.560
12 36.00 1200.01 244 665 0.235 10000.000 0.000 -0.560
13 39.00 1200.01 250 633 0.235 10000.000 0.000 -0.560
14 42.00 1200.01 276 634 0.235 10000.000 0.000 -0.560
15 45.00 1200.01 275 607 0.235 10000.000 0.000 -0.560
16 48.00 1200.01 232 675 0.235 10000.000 0.000 -0.560
17 51.00 1200.01 265 667 0.235 10000.000 0.000 -0.560
18 54.00 1200.01 271 723 0.235 10000.000 0.000 -0.560
19 57.00 1200.01 253 680 0.235 10000.000 0.000 -0.560
20 60.00 1200.01 258 650 0.235 10000.000 0.000 -0.560
21 63.00 1200.01 279 671 0.235 10000.000 0.000 -0.560
22 66.00 1200.01 281 691 0.235 10000.000 0.000 -0.560
23 69.00 1200.01 275 721 0.235 10000.000 0.000 -0.560
24 72.00 1200.01 283 713 0.235 10000.000 0.000 -0.560
25 75.00 1200.01 268 669 0.235 10000.000 0.000 -0.560
26 78.00 1200.01 291 721 0.235 10000.000 0.000 -0.560
27 81.00 1200.01 246 664 0.235 10000.000 0.000 -0.560
28 84.00 1200.01 271 673 0.235 10000.000 0.000 -0.560
29 87.00 1200.01 215 670 0.235 10000.000 0.000 -0.560
30 90.00 1200.01 272 669 0.235 10000.000 0.000 -0.560
31 93.00 1200.01 265 619 0.235 10000.000 0.000 -0.560
32 96.00 1200.01 251 701 0.235 10000.000 0.000 -0.560
33 99.00 1200.01 264 643 0.235 10000.000 0.000 -0.560
34 102.00 1200.01 289 683 0.235 10000.000 0.000 -0.560
35 105.00 1200.01 298 637 0.235 10000.000 0.000 -0.560
36 108.00 1200.01 254 621 0.235 10000.000 0.000 -0.560
37 111.00 1200.01 240 622 0.235 10000.000 0.000 -0.560
38 114.00 1200.01 270 647 0.235 10000.000 0.000 -0.560
39 117.00 1200.01 280 667 0.235 10000.000 0.000 -0.560
40 120.00 1200.01 274 661 0.235 10000.000 0.000 -0.560
41 123.00 1200.01 246 610 0.235 10000.000 0.000 -0.560
42 126.00 1200.01 264 729 0.235 10000.000 0.000 -0.560
43 129.00 1200.01 230 678 0.235 10000.000 0.000 -0.560
44 132.00 1200.01 280 640 0.235 10000.000 0.000 -0.560
45 135.00 1200.01 264 699 0.235 10000.000 0.000 -0.560
46 138.00 1200.01 252 660 0.235 10000.000 0.000 -0.560
47 141.00 1200.01 233 650 0.235 10000.000 0.000 -0.560
48 144.00 1200.01 305 662 0.235 10000.000 0.000 -0.560
49 147.00 1200.01 269 644 0.235 10000.000 0.000 -0.560
50 150.00 1200.01 271 730 0.235 10000.000 0.000 -0.560
51 153.00 1200.01 295 678 0.235 10000.000 0.000 -0.560
52 156.00 1200.01 236 673 0.235 10000.000 0.000 -0.560
53 159.00 1200.01 262 689 0.235 10000.000 0.000 -0.560
54 162.00 1200.01 264 716 0.235 10000.000 0.000 -0.560
55 165.00 1200.01 263 680 0.235 10000.000 0.000 -0.560
56 168.00 1200.01 278 692 0.235 10000.000 0.000 -0.560
57 171.00 1200.01 260 673 0.235 10000.000 0.000 -0.560
58 174.00 1200.01 278 682 0.235 10000.000 0.000 -0.560
59 177.00 1200.01 241 657 0.235 10000.000 0.000 -0.560
60 180.00 1200.01 264 698 0.235 10000.000 0.000 -0.560
61 183.00 1200.01 282 642 0.235 10000.000 0.000 -0.560
62 186.00 1200.01 262 690 0.235 10000.000 0.000 -0.560
63 189.00 1200.01 282 633 0.235 10000.000 0.000 -0.560
64 192.00 1200.01 264 647 0.235 10000.000 0.000 -0.560
65 195.00 1200.01 275 705 0.235 10000.000 0.000 -0.560
66 198.00 1200.01 283 707 0.235 10000.000 0.000 -0.560
67 201.00 1200.01 254 649 0.235 10000.000 0.000 -0.560
68 204.00 1200.01 285 655 0.235 10000.000 0.000 -0.560
69 207.00 1200.01 282 666 0.235 10000.000 0.000 -0.560
70 210.00 1200.01 243 669 0.235 10000.000 0.000 -0.560
71 213.00 1200.01 256 658 0.235 10000.000 0.000 -0.560
72 216.00 1200.01 269 633 0.235 10000.000 0.000 -0.560
73 219.00 1200.01 265 662 0.235 10000.000 0.000 -0.560
74 222.00 1200.01 249 656 0.235 10000.000 0.000 -0.560
75 225.00 1200.01 262 625 0.235 10000.000 0.000 -0.560
76 228.00 1200.01 258 660 0.235 10000.000 0.000 -0.560
77 231.00 1200.01 283 664 0.235 10000.000 0.000 -0.560
78 234.00 1200.01 285 678 0.235 10000.000 0.000 -0.560
79 237.00 1200.01 252 640 0.235 10000.000 0.000 -0.560
80 240.00 1200.01 299 676 0.235 10000.000 0.000 -0.560
81 243.00 1200.01 272 657 0.235 10000.000 0.000 -0.560
82 246.00 1200.01 269 650 0.235 10000.000 0.000 -0.560
83 249.00 1200.01 254 696 0.235 10000.000 0.000 -0.560
84 252.00 1200.01 290 691 0.235 10000.000 0.000 -0.560
85 255.00 1200.01 258 683 0.235 10000.000 0.000 -0.560
86 258.00 1200.01 258 725 0.235 10000.000 0.000 -0.560
87 261.00 1200.01 270 688 0.235 10000.000 0.000 -0.560
88 264.00 1200.01 273 710 0.235 10000.000 0.000 -0.560
89 267.00 1200.01 263 709 0.235 10000.000 0.000 -0.560
90 270.00 1200.01 279 670 0.235 10000.000 0.000 -0.560
91 273.00 1200.01 257 701 0.235 10000.000 0.000 -0.560
92 276.00 1200.01 307 698 0.235 10000.000 0.000 -0.560
93 279.00 1200.01 277 635 0.235 10000.000 0.000 -0.560
94 282.00 1200.01 312 680 0.235 10000.000 0.000 -0.560
95 285.00 1200.01 266 682 0.235 10000.000 0.000 -0.560
96 288.00 1200.01 254 660 0.235 10000.000 0.000 -0.560
97 291.00 1200.01 259 671 0.235 10000.000 0.000 -0.560
98 294.00 1200.01 264 699 0.235 10000.000 0.000 -0.560
99 297.00 1200.01 244 622 0.235 10000.000 0.000 -0.560
100 300.00 1200.01 263 679 0.235 10000.000 0.000 -0.560
101 303.00 1200.01 276 629 0.235 10000.000 0.000 -0.560
102 306.00 1200.01 247 666 0.235 10000.000 0.000 -0.560
103 309.00 1200.01 240 622 0.235 10000.000 0.000 -0.560
104 312.00 1200.01 264 654 0.235 10000.000 0.000 -0.560
105 315.00 1200.01 272 618 0.235 10000.000 0.000 -0.560
106 318.00 1200.01 284 631 0.235 10000.000 0.000 -0.560
107 321.00 1200.01 296 591 0.235 10000.000 0.000 -0.560
108 324.00 1200.01 270 691 0.235 10000.000 0.000 -0.560
109 327.00 1200.01 238 650 0.235 10000.000 0.000 -0.560
110 330.00 1200.01 264 699 0.235 10000.000 0.000 -0.560
111 333.00 1200.01 268 634 0.235 10000.000 0.000 -0.560
112 336.00 1200.01 260 707 0.235 10000.000 0.000 -0.560
113 339.00 1200.01 259 673 0.235 10000.000 0.000 -0.560
114 342.00 1200.01 270 656 0.235 10000.000 0.000 -0.560
115 345.00 1200.01 257 659 0.235 10000.000 0.000 -0.560
116 348.00 1200.01 283 666 0.235 10000.000 0.000 -0.560
117 351.00 1200.01 275 624 0.235 10000.000 0.000 -0.560
118 354.00 1200.01 268 725 0.235 10000.000 0.000 -0.560
119 357.00 1200.01 289 664 0.235 10000.000 0.000 -0.560
120 360.00 1200.01 264 740 0.235 10000.000 0.000 -0.560
121 363.00 1200.01 273 647 0.235 10000.000 0.000 -0.560
122 366.00 1200.01 273 676 0.235 10000.000 0.000 -0.560
123 369.00 1200.01 236 729 0.235 10000.000 0.000 -0.560
124 372.00 1200.01 287 739 0.235 10000.000 0.000 -0.560
125 375.00 1200.01 247 678 0.235 10000.000 0.000 -0.560
126 378.00 1200.01 275 702 0.235 10000.000 0.000 -0.560
127 381.00 1200.01 259 683 0.235 10000.000 0.000 -0.560
128 384.00 1200.01 240 699 0.235 10000.000 0.000 -0.560
129 387.00 1200.01 256 671 0.235 10000.000 0.000 -0.560
130 390.00 1200.01 262 724 0.235 10000.000 0.000 -0.560
131 393.00 1200.01 269 648 0.235 10000.000 0.000 -0.560
132 396.00 1200.01 265 651 0.235 10000.000 0.000 -0.560
133 399.00 1200.01 261 694 0.235 10000.000 0.000 -0.560
134 402.00 1200.01 282 653 0.235 10000.000 0.000 -0.560
135 405.00 1200.01 265 687 0.235 10000.000 0.000 -0.560
136 408.00 1200.01 280 680 0.235 10000.000 0.000 -0.560
137 411.00 1200.01 244 655 0.235 10000.000 0.000 -0.560
138 414.00 1200.01 282 666 0.235 10000.000 0.000 -0.560
139 417.00 1200.01 271 657 0.235 10000.000 0.000 -0.560
140 420.00 1200.01 282 675 0.235 10000.000 0.000 -0.560
141 423.00 1200.01 292 692 0.235 10000.000 0.000 -0.560
