# BinNR microsec tot-time (s)  O-Beam AUX Ampl(V) f(Hz) phase(deg) chi(pos)
0 0.00 1200.01 111 200 2.750 10000.000 0.000 0.165
1 3.00 1200.01 287 430 2.750 10000.000 0.000 0.165
2 6.00 1200.01 255 482 2.750 10000.000 0.000 0.165
3 9.00 1200.01 252 356 2.750 10000.000 0.000 0.165
4 12.00 1200.01 253 346 2.750 10000.000 0.000 0.165
5 15.00 1200.01 253 285 2.750 10000.000 0.000 0.165
6 18.00 1200.01 244 232 2.750 10000.000 0.000 0.165
7 21.00 1200.01 229 187 2.750 10000.000 0.000 0.165
8 24.00 1200.01 180 169 2.750 10000.000 0.000 0.165
9 27.00 1200.01 206 151 2.750 10000.000 0.000 0.165
10 30.00 1200.01 181 175 2.750 10000.000 0.000 0.165
11 33.00 1200.01 170 172 2.750 10000.000 0.000 0.165
12 36.00 1200.01 101 215 2.750 10000.000 0.000 0.165
13 39.00 1200.01 127 263 2.750 10000.000 0.000 0.165
14 42.00 1200.01 122 362 2.750 10000.000 0.000 0.165
15 45.00 1200.01 111 414 2.750 10000.000 0.000 0.165
16 48.00 1200.01 99 531 2.750 10000.000 0.000 0.165
17 51.00 1200.01 110 542 2.750 10000.000 0.000 0.165
18 54.00 1200.01 130 641 2.750 10000.000 0.000 0.165
19 57.00 1200.01 107 648 2.750 10000.000 0.000 0.165
20 60.00 1200.01 113 639 2.750 10000.000 0.000 0.165
21 63.00 1200.01 116 652 2.750 10000.000 0.000 0.165
22 66.00 1200.01 147 708 2.750 10000.000 0.000 0.165
23 69.00 1200.01 182 690 2.750 10000.000 0.000 0.165
24 72.00 1200.01 148 715 2.750 10000.000 0.000 0.165
25 75.00 1200.01 198 635 2.750 10000.000 0.000 0.165
26 78.00 1200.01 206 661 2.750 10000.000 0.000 0.165
27 81.00 1200.01 210 559 2.750 10000.000 0.000 0.165
28 84.00 1200.01 247 520 2.750 10000.000 0.000 0.165
29 87.00 1200.01 245 467 2.750 10000.000 0.000 0.165
30 90.00 1200.01 265 381 2.750 10000.000 0.000 0.165
31 93.00 1200.01 245 315 2.750 10000.000 0.000 0.165
32 96.00 1200.01 269 261 2.750 10000.000 0.000 0.165
33 99.00 1200.01 239 161 2.750 10000.000 0.000 0.165
34 102.00 1200.01 296 171 2.750 10000.000 0.000 0.165
35 105.00 1200.01 257 140 2.750 10000.000 0.000 0.165
36 108.00 1200.01 233 142 2.750 10000.000 0.000 0.165
37 111.00 1200.01 265 131 2.750 10000.000 0.000 0.165
38 114.00 1200.01 232 115 2.750 10000.000 0.000 0.165
39 117.00 1200.01 252 132 2.750 10000.000 0.000 0.165
40 120.00 1200.01 217 134 2.750 10000.000 0.000 0.165
41 123.00 1200.01 205 126 2.750 10000.000 0.000 0.165
42 126.00 1200.01 214 152 2.750 10000.000 0.000 0.165
43 129.00 1200.01 182 169 2.750 10000.000 0.000 0.165
44 132.00 1200.01 164 182 2.750 10000.000 0.000 0.165
45 135.00 1200.01 128 250 2.750 10000.000 0.000 0.165
46 138.00 1200.01 139 276 2.750 10000.000 0.000 0.165
47 141.00 1200.01 128 377 2.750 10000.000 0.000 0.165
48 144.00 1200.01 124 511 2.750 10000.000 0.000 0.165
49 147.00 1200.01 108 541 2.750 10000.000 0.000 0.165
50 150.00 1200.01 111 658 2.750 10000.000 0.000 0.165
51 153.00 1200.01 90 645 2.750 10000.000 0.000 0.165
52 156.00 1200.01 102 700 2.750 10000.000 0.000 0.165
53 159.00 1200.01 97 664 2.750 10000.000 0.000 0.165
54 162.00 1200.01 136 664 2.750 10000.000 0.000 0.165
55 165.00 1200.01 133 732 2.750 10000.000 0.000 0.165
56 168.00 1200.01 138 733 2.750 10000.000 0.000 0.165
57 171.00 1200.01 127 738 2.750 10000.000 0.000 0.165
58 174.00 1200.01 187 701 2.750 10000.000 0.000 0.165
59 177.00 1200.01 178 625 2.750 10000.000 0.000 0.165
60 180.00 1200.01 197 577 2.750 10000.000 0.000 0.165
61 183.00 1200.01 231 526 2.750 10000.000 0.000 0.165
62 186.00 1200.01 254 441 2.750 10000.000 0.000 0.165
63 189.00 1200.01 252 409 2.750 10000.000 0.000 0.165
64 192.00 1200.01 261 314 2.750 10000.000 0.000 0.165
65 195.00 1200.01 247 230 2.750 10000.000 0.000 0.165
66 198.00 1200.01 296 202 2.750 10000.000 0.000 0.165
67 201.00 1200.01 243 167 2.750 10000.000 0.000 0.165
68 204.00 1200.01 283 137 2.750 10000.000 0.000 0.165
69 207.00 1200.01 270 126 2.750 10000.000 0.000 0.165
70 210.00 1200.01 267 107 2.750 10000.000 0.000 0.165
71 213.00 1200.01 242 139 2.750 10000.000 0.000 0.165
72 216.00 1200.01 212 118 2.750 10000.000 0.000 0.165
73 219.00 1200.01 257 113 2.750 10000.000 0.000 0.165
74 222.00 1200.01 218 135 2.750 10000.000 0.000 0.165
75 225.00 1200.01 212 121 2.750 10000.000 0.000 0.165
76 228.00 1200.01 197 166 2.750 10000.000 0.000 0.165
77 231.00 1200.01 162 212 2.750 10000.000 0.000 0.165
78 234.00 1200.01 143 245 2.750 10000.000 0.000 0.165
79 237.00 1200.01 144 273 2.750 10000.000 0.000 0.165
80 240.00 1200.01 124 356 2.750 10000.000 0.000 0.165
81 243.00 1200.01 122 460 2.750 10000.000 0.000 0.165
82 246.00 1200.01 140 524 2.750 10000.000 0.000 0.165
83 249.00 1200.01 129 587 2.750 10000.000 0.000 0.165
84 252.00 1200.01 139 609 2.750 10000.000 0.000 0.165
85 255.00 1200.01 151 654 2.750 10000.000 0.000 0.165
86 258.00 1200.01 165 693 2.750 10000.000 0.000 0.165
87 261.00 1200.01 142 741 2.750 10000.000 0.000 0.165
88 264.00 1200.01 180 662 2.750 10000.000 0.000 0.165
89 267.00 1200.01 161 682 2.750 10000.000 0.000 0.165
90 270.00 1200.01 226 681 2.750 10000.000 0.000 0.165
91 273.00 1200.01 200 676 2.750 10000.000 0.000 0.165
92 276.00 1200.01 165 673 2.750 10000.000 0.000 0.165
93 279.00 1200.01 161 603 2.750 10000.000 0.000 0.165
94 282.00 1200.01 190 526 2.750 10000.000 0.000 0.165
95 285.00 1200.01 170 483 2.750 10000.000 0.000 0.165
96 288.00 1200.01 157 403 2.750 10000.000 0.000 0.165
97 291.00 1200.01 154 344 2.750 10000.000 0.000 0.165
98 294.00 1200.01 133 282 2.750 10000.000 0.000 0.165
99 297.00 1200.01 151 191 2.750 10000.000 0.000 0.165
100 300.00 1200.01 159 186 2.750 10000.000 0.000 0.165
101 303.00 1200.01 150 154 2.750 10000.000 0.000 0.165
102 306.00 1200.01 178 130 2.750 10000.000 0.000 0.165
103 309.00 1200.01 182 126 2.750 10000.000 0.000 0.165
104 312.00 1200.01 186 127 2.750 10000.000 0.000 0.165
105 315.00 1200.01 217 113 2.750 10000.000 0.000 0.165
106 318.00 1200.01 195 102 2.750 10000.000 0.000 0.165
107 321.00 1200.01 255 122 2.750 10000.000 0.000 0.165
108 324.00 1200.01 261 125 2.750 10000.000 0.000 0.165
109 327.00 1200.01 254 156 2.750 10000.000 0.000 0.165
110 330.00 1200.01 238 169 2.750 10000.000 0.000 0.165
111 333.00 1200.01 272 213 2.750 10000.000 0.000 0.165
112 336.00 1200.01 265 255 2.750 10000.000 0.000 0.165
113 339.00 1200.01 254 382 2.750 10000.000 0.000 0.165
114 342.00 1200.01 270 396 2.750 10000.000 0.000 0.165
115 345.00 1200.01 262 501 2.750 10000.000 0.000 0.165
116 348.00 1200.01 259 585 2.750 10000.000 0.000 0.165
117 351.00 1200.01 272 589 2.750 10000.000 0.000 0.165
118 354.00 1200.01 258 612 2.750 10000.000 0.000 0.165
119 357.00 1200.01 224 712 2.750 10000.000 0.000 0.165
120 360.00 1200.01 217 746 2.750 10000.000 0.000 0.165
121 363.00 1200.01 195 673 2.750 10000.000 0.000 0.165
122 366.00 1200.01 200 699 2.750 10000.000 0.000 0.165
123 369.00 1200.01 165 705 2.750 10000.000 0.000 0.165
124 372.00 1200.01 146 632 2.750 10000.000 0.000 0.165
125 375.00 1200.01 96 676 2.750 10000.000 0.000 0.165
126 378.00 1200.01 103 669 2.750 10000.000 0.000 0.165
127 381.00 1200.01 121 624 2.750 10000.000 0.000 0.165
128 384.00 1200.01 112 536 2.750 10000.000 0.000 0.165
129 387.00 1200.01 80 417 2.750 10000.000 0.000 0.165
130 390.00 1200.01 90 364 2.750 10000.000 0.000 0.165
131 393.00 1200.01 125 291 2.750 10000.000 0.000 0.165
132 396.00 1200.01 114 266 2.750 10000.000 0.000 0.165
133 399.00 1200.01 158 167 2.750 10000.000 0.000 0.165
134 402.00 1200.01 136 157 2.750 10000.000 0.000 0.165
135 405.00 1200.01 152 149 2.750 10000.000 0.000 0.165
136 408.00 1200.01 169 134 2.750 10000.000 0.000 0.165
137 411.00 1200.01 172 133 2.750 10000.000 0.000 0.165
138 414.00 1200.01 215 159 2.750 10000.000 0.000 0.165
139 417.00 1200.01 243 189 2.750 10000.000 0.000 0.165
140 420.00 1200.01 228 245 2.750 10000.000 0.000 0.165
141 423.00 1200.01 251 238 2.750 10000.000 0.000 0.165
