# BinNR microsec tot-time (s)  O-Beam AUX Ampl(V) f(Hz) phase(deg) chi(pos)
0 0.00 1200.00 80 97 1.100 10000.000 0.000 0.165
1 3.00 1200.00 134 189 1.100 10000.000 0.000 0.165
2 6.00 1200.00 137 165 1.100 10000.000 0.000 0.165
3 9.00 1200.00 129 152 1.100 10000.000 0.000 0.165
4 12.00 1200.00 122 175 1.100 10000.000 0.000 0.165
5 15.00 1200.00 126 149 1.100 10000.000 0.000 0.165
6 18.00 1200.00 126 141 1.100 10000.000 0.000 0.165
7 21.00 1200.00 111 107 1.100 10000.000 0.000 0.165
8 24.00 1200.00 101 116 1.100 10000.000 0.000 0.165
9 27.00 1200.00 128 107 1.100 10000.000 0.000 0.165
10 30.00 1200.00 102 140 1.100 10000.000 0.000 0.165
11 33.00 1200.00 91 120 1.100 10000.000 0.000 0.165
12 36.00 1200.00 112 126 1.100 10000.000 0.000 0.165
13 39.00 1200.00 110 129 1.100 10000.000 0.000 0.165
14 42.00 1200.00 97 126 1.100 10000.000 0.000 0.165
15 45.00 1200.00 114 138 1.100 10000.000 0.000 0.165
16 48.00 1200.00 101 126 1.100 10000.000 0.000 0.165
17 51.00 1200.00 110 112 1.100 10000.000 0.000 0.165
18 54.00 1200.00 117 119 1.100 10000.000 0.000 0.165
19 57.00 1200.00 108 136 1.100 10000.000 0.000 0.165
20 60.00 1200.00 121 133 1.100 10000.000 0.000 0.165
21 63.00 1200.00 119 143 1.100 10000.000 0.000 0.165
22 66.00 1200.00 114 158 1.100 10000.000 0.000 0.165
23 69.00 1200.00 117 164 1.100 10000.000 0.000 0.165
24 72.00 1200.00 126 186 1.100 10000.000 0.000 0.165
25 75.00 1200.00 130 208 1.100 10000.000 0.000 0.165
26 78.00 1200.00 119 186 1.100 10000.000 0.000 0.165
27 81.00 1200.00 155 179 1.100 10000.000 0.000 0.165
28 84.00 1200.00 145 186 1.100 10000.000 0.000 0.165
29 87.00 1200.00 151 195 1.100 10000.000 0.000 0.165
30 90.00 1200.00 140 192 1.100 10000.000 0.000 0.165
31 93.00 1200.00 111 210 1.100 10000.000 0.000 0.165
32 96.00 1200.00 150 173 1.100 10000.000 0.000 0.165
33 99.00 1200.00 152 197 1.100 10000.000 0.000 0.165
34 102.00 1200.00 141 149 1.100 10000.000 0.000 0.165
35 105.00 1200.00 140 176 1.100 10000.000 0.000 0.165
36 108.00 1200.00 128 165 1.100 10000.000 0.000 0.165
37 111.00 1200.00 122 162 1.100 10000.000 0.000 0.165
38 114.00 1200.00 136 140 1.100 10000.000 0.000 0.165
39 117.00 1200.00 142 147 1.100 10000.000 0.000 0.165
40 120.00 1200.00 121 129 1.100 10000.000 0.000 0.165
41 123.00 1200.00 106 136 1.100 10000.000 0.000 0.165
42 126.00 1200.00 108 146 1.100 10000.000 0.000 0.165
43 129.00 1200.00 107 133 1.100 10000.000 0.000 0.165
44 132.00 1200.00 120 125 1.100 10000.000 0.000 0.165
45 135.00 1200.00 105 130 1.100 10000.000 0.000 0.165
46 138.00 1200.00 116 140 1.100 10000.000 0.000 0.165
47 141.00 1200.00 90 111 1.100 10000.000 0.000 0.165
48 144.00 1200.00 119 110 1.100 10000.000 0.000 0.165
49 147.00 1200.00 114 134 1.100 10000.000 0.000 0.165
50 150.00 1200.00 108 141 1.100 10000.000 0.000 0.165
51 153.00 1200.00 99 151 1.100 10000.000 0.000 0.165
52 156.00 1200.00 122 124 1.100 10000.000 0.000 0.165
53 159.00 1200.00 112 124 1.100 10000.000 0.000 0.165
54 162.00 1200.00 113 133 1.100 10000.000 0.000 0.165
55 165.00 1200.00 138 135 1.100 10000.000 0.000 0.165
56 168.00 1200.00 124 139 1.100 10000.000 0.000 0.165
57 171.00 1200.00 112 188 1.100 10000.000 0.000 0.165
58 174.00 1200.00 141 169 1.100 10000.000 0.000 0.165
59 177.00 1200.00 134 171 1.100 10000.000 0.000 0.165
60 180.00 1200.00 131 192 1.100 10000.000 0.000 0.165
61 183.00 1200.00 144 202 1.100 10000.000 0.000 0.165
62 186.00 1200.00 129 196 1.100 10000.000 0.000 0.165
63 189.00 1200.00 138 171 1.100 10000.000 0.000 0.165
64 192.00 1200.00 141 158 1.100 10000.000 0.000 0.165
65 195.00 1200.00 163 175 1.100 10000.000 0.000 0.165
66 198.00 1200.00 155 189 1.100 10000.000 0.000 0.165
67 201.00 1200.00 141 206 1.100 10000.000 0.000 0.165
68 204.00 1200.00 119 187 1.100 10000.000 0.000 0.165
69 207.00 1200.00 127 169 1.100 10000.000 0.000 0.165
70 210.00 1200.00 144 198 1.100 10000.000 0.000 0.165
71 213.00 1200.00 114 157 1.100 10000.000 0.000 0.165
72 216.00 1200.00 125 152 1.100 10000.000 0.000 0.165
73 219.00 1200.00 128 156 1.100 10000.000 0.000 0.165
74 222.00 1200.00 106 147 1.100 10000.000 0.000 0.165
75 225.00 1200.00 102 143 1.100 10000.000 0.000 0.165
76 228.00 1200.00 111 137 1.100 10000.000 0.000 0.165
77 231.00 1200.00 111 142 1.100 10000.000 0.000 0.165
78 234.00 1200.00 122 138 1.100 10000.000 0.000 0.165
79 237.00 1200.00 90 113 1.100 10000.000 0.000 0.165
80 240.00 1200.00 121 143 1.100 10000.000 0.000 0.165
81 243.00 1200.00 101 119 1.100 10000.000 0.000 0.165
82 246.00 1200.00 119 107 1.100 10000.000 0.000 0.165
83 249.00 1200.00 101 134 1.100 10000.000 0.000 0.165
84 252.00 1200.00 106 124 1.100 10000.000 0.000 0.165
85 255.00 1200.00 121 136 1.100 10000.000 0.000 0.165
86 258.00 1200.00 106 135 1.100 10000.000 0.000 0.165
87 261.00 1200.00 109 135 1.100 10000.000 0.000 0.165
88 264.00 1200.00 133 141 1.100 10000.000 0.000 0.165
89 267.00 1200.00 140 150 1.100 10000.000 0.000 0.165
90 270.00 1200.00 135 194 1.100 10000.000 0.000 0.165
91 273.00 1200.00 124 173 1.100 10000.000 0.000 0.165
92 276.00 1200.00 158 172 1.100 10000.000 0.000 0.165
93 279.00 1200.00 130 195 1.100 10000.000 0.000 0.165
94 282.00 1200.00 137 177 1.100 10000.000 0.000 0.165
95 285.00 1200.00 140 177 1.100 10000.000 0.000 0.165
96 288.00 1200.00 146 212 1.100 10000.000 0.000 0.165
97 291.00 1200.00 129 201 1.100 10000.000 0.000 0.165
98 294.00 1200.00 136 206 1.100 10000.000 0.000 0.165
99 297.00 1200.00 147 210 1.100 10000.000 0.000 0.165
100 300.00 1200.00 134 174 1.100 10000.000 0.000 0.165
101 303.00 1200.00 135 163 1.100 10000.000 0.000 0.165
102 306.00 1200.00 127 160 1.100 10000.000 0.000 0.165
103 309.00 1200.00 133 177 1.100 10000.000 0.000 0.165
104 312.00 1200.00 132 162 1.100 10000.000 0.000 0.165
105 315.00 1200.00 121 168 1.100 10000.000 0.000 0.165
106 318.00 1200.00 117 175 1.100 10000.000 0.000 0.165
107 321.00 1200.00 112 136 1.100 10000.000 0.000 0.165
108 324.00 1200.00 113 142 1.100 10000.000 0.000 0.165
109 327.00 1200.00 111 118 1.100 10000.000 0.000 0.165
110 330.00 1200.00 102 135 1.100 10000.000 0.000 0.165
111 333.00 1200.00 114 126 1.100 10000.000 0.000 0.165
112 336.00 1200.00 109 133 1.100 10000.000 0.000 0.165
113 339.00 1200.00 113 128 1.100 10000.000 0.000 0.165
114 342.00 1200.00 121 125 1.100 10000.000 0.000 0.165
115 345.00 1200.00 123 124 1.100 10000.000 0.000 0.165
116 348.00 1200.00 92 130 1.100 10000.000 0.000 0.165
117 351.00 1200.00 103 123 1.100 10000.000 0.000 0.165
118 354.00 1200.00 117 143 1.100 10000.000 0.000 0.165
119 357.00 1200.00 116 139 1.100 10000.000 0.000 0.165
120 360.00 1200.00 135 158 1.100 10000.000 0.000 0.165
121 363.00 1200.00 117 152 1.100 10000.000 0.000 0.165
122 366.00 1200.00 134 167 1.100 10000.000 0.000 0.165
123 369.00 1200.00 120 168 1.100 10000.000 0.000 0.165
124 372.00 1200.00 137 176 1.100 10000.000 0.000 0.165
125 375.00 1200.00 114 175 1.100 10000.000 0.000 0.165
126 378.00 1200.00 136 187 1.100 10000.000 0.000 0.165
127 381.00 1200.00 140 175 1.100 10000.000 0.000 0.165
128 384.00 1200.00 134 184 1.100 10000.000 0.000 0.165
129 387.00 1200.00 139 181 1.100 10000.000 0.000 0.165
130 390.00 1200.00 123 186 1.100 10000.000 0.000 0.165
131 393.00 1200.00 161 202 1.100 10000.000 0.000 0.165
132 396.00 1200.00 147 179 1.100 10000.000 0.000 0.165
133 399.00 1200.00 116 194 1.100 10000.000 0.000 0.165
134 402.00 1200.00 151 141 1.100 10000.000 0.000 0.165
