# BinNR microsec tot-time (s)  O-Beam AUX Ampl(V) f(Hz) phase(deg) chi(pos)
0 0.00 1200.01 55 199 1.100 10000.000 0.000 -1.340
1 3.00 1200.01 116 433 1.100 10000.000 0.000 -1.340
2 6.00 1200.01 134 436 1.100 10000.000 0.000 -1.340
3 9.00 1200.01 158 451 1.100 10000.000 0.000 -1.340
4 12.00 1200.01 157 501 1.100 10000.000 0.000 -1.340
5 15.00 1200.01 155 485 1.100 10000.000 0.000 -1.340
6 18.00 1200.01 126 480 1.100 10000.000 0.000 -1.340
7 21.00 1200.01 154 522 1.100 10000.000 0.000 -1.340
8 24.00 1200.01 163 525 1.100 10000.000 0.000 -1.340
9 27.00 1200.01 169 544 1.100 10000.000 0.000 -1.340
10 30.00 1200.01 154 548 1.100 10000.000 0.000 -1.340
11 33.00 1200.01 159 518 1.100 10000.000 0.000 -1.340
12 36.00 1200.01 164 513 1.100 10000.000 0.000 -1.340
13 39.00 1200.01 141 496 1.100 10000.000 0.000 -1.340
14 42.00 1200.01 162 534 1.100 10000.000 0.000 -1.340
15 45.00 1200.01 159 544 1.100 10000.000 0.000 -1.340
16 48.00 1200.01 148 549 1.100 10000.000 0.000 -1.340
17 51.00 1200.01 157 544 1.100 10000.000 0.000 -1.340
18 54.00 1200.01 142 507 1.100 10000.000 0.000 -1.340
19 57.00 1200.01 162 540 1.100 10000.000 0.000 -1.340
20 60.00 1200.01 144 571 1.100 10000.000 0.000 -1.340
21 63.00 1200.01 154 497 1.100 10000.000 0.000 -1.340
22 66.00 1200.01 125 480 1.100 10000.000 0.000 -1.340
23 69.00 1200.01 141 466 1.100 10000.000 0.000 -1.340
24 72.00 1200.01 151 402 1.100 10000.000 0.000 -1.340
25 75.00 1200.01 137 461 1.100 10000.000 0.000 -1.340
26 78.00 1200.01 108 421 1.100 10000.000 0.000 -1.340
27 81.00 1200.01 127 402 1.100 10000.000 0.000 -1.340
28 84.00 1200.01 130 403 1.100 10000.000 0.000 -1.340
29 87.00 1200.01 113 413 1.100 10000.000 0.000 -1.340
30 90.00 1200.01 131 414 1.100 10000.000 0.000 -1.340
31 93.00 1200.01 119 349 1.100 10000.000 0.000 -1.340
32 96.00 1200.01 120 419 1.100 10000.000 0.000 -1.340
33 99.00 1200.01 127 371 1.100 10000.000 0.000 -1.340
34 102.00 1200.01 149 405 1.100 10000.000 0.000 -1.340
35 105.00 1200.01 116 403 1.100 10000.000 0.000 -1.340
36 108.00 1200.01 161 449 1.100 10000.000 0.000 -1.340
37 111.00 1200.01 140 436 1.100 10000.000 0.000 -1.340
38 114.00 1200.01 132 462 1.100 10000.000 0.000 -1.340
39 117.00 1200.01 165 496 1.100 10000.000 0.000 -1.340
40 120.00 1200.01 157 480 1.100 10000.000 0.000 -1.340
41 123.00 1200.01 159 497 1.100 10000.000 0.000 -1.340
42 126.00 1200.01 167 563 1.100 10000.000 0.000 -1.340
43 129.00 1200.01 157 521 1.100 10000.000 0.000 -1.340
44 132.00 1200.01 164 548 1.100 10000.000 0.000 -1.340
45 135.00 1200.01 144 541 1.100 10000.000 0.000 -1.340
46 138.00 1200.01 173 556 1.100 10000.000 0.000 -1.340
47 141.00 1200.01 158 537 1.100 10000.000 0.000 -1.340
48 144.00 1200.01 146 534 1.100 10000.000 0.000 -1.340
49 147.00 1200.01 169 533 1.100 10000.000 0.000 -1.340
50 150.00 1200.01 155 560 1.100 10000.000 0.000 -1.340
51 153.00 1200.01 163 603 1.100 10000.000 0.000 -1.340
52 156.00 1200.01 164 477 1.100 10000.000 0.000 -1.340
53 159.00 1200.01 160 533 1.100 10000.000 0.000 -1.340
54 162.00 1200.01 138 522 1.100 10000.000 0.000 -1.340
55 165.00 1200.01 149 447 1.100 10000.000 0.000 -1.340
56 168.00 1200.01 120 479 1.100 10000.000 0.000 -1.340
57 171.00 1200.01 117 443 1.100 10000.000 0.000 -1.340
58 174.00 1200.01 131 430 1.100 10000.000 0.000 -1.340
59 177.00 1200.01 134 423 1.100 10000.000 0.000 -1.340
60 180.00 1200.01 116 408 1.100 10000.000 0.000 -1.340
61 183.00 1200.01 132 383 1.100 10000.000 0.000 -1.340
62 186.00 1200.01 124 406 1.100 10000.000 0.000 -1.340
63 189.00 1200.01 107 399 1.100 10000.000 0.000 -1.340
64 192.00 1200.01 115 425 1.100 10000.000 0.000 -1.340
65 195.00 1200.01 110 417 1.100 10000.000 0.000 -1.340
66 198.00 1200.01 141 388 1.100 10000.000 0.000 -1.340
67 201.00 1200.01 123 434 1.100 10000.000 0.000 -1.340
68 204.00 1200.01 136 411 1.100 10000.000 0.000 -1.340
69 207.00 1200.01 150 438 1.100 10000.000 0.000 -1.340
70 210.00 1200.01 141 429 1.100 10000.000 0.000 -1.340
71 213.00 1200.01 131 444 1.100 10000.000 0.000 -1.340
72 216.00 1200.01 151 481 1.100 10000.000 0.000 -1.340
73 219.00 1200.01 141 494 1.100 10000.000 0.000 -1.340
74 222.00 1200.01 161 527 1.100 10000.000 0.000 -1.340
75 225.00 1200.01 162 527 1.100 10000.000 0.000 -1.340
76 228.00 1200.01 157 507 1.100 10000.000 0.000 -1.340
77 231.00 1200.01 165 523 1.100 10000.000 0.000 -1.340
78 234.00 1200.01 132 539 1.100 10000.000 0.000 -1.340
79 237.00 1200.01 156 544 1.100 10000.000 0.000 -1.340
80 240.00 1200.01 160 524 1.100 10000.000 0.000 -1.340
81 243.00 1200.01 136 575 1.100 10000.000 0.000 -1.340
82 246.00 1200.01 146 540 1.100 10000.000 0.000 -1.340
83 249.00 1200.01 146 578 1.100 10000.000 0.000 -1.340
84 252.00 1200.01 149 551 1.100 10000.000 0.000 -1.340
85 255.00 1200.01 150 480 1.100 10000.000 0.000 -1.340
86 258.00 1200.01 123 493 1.100 10000.000 0.000 -1.340
87 261.00 1200.01 154 525 1.100 10000.000 0.000 -1.340
88 264.00 1200.01 142 492 1.100 10000.000 0.000 -1.340
89 267.00 1200.01 134 463 1.100 10000.000 0.000 -1.340
90 270.00 1200.01 144 476 1.100 10000.000 0.000 -1.340
91 273.00 1200.01 120 434 1.100 10000.000 0.000 -1.340
92 276.00 1200.01 132 418 1.100 10000.000 0.000 -1.340
93 279.00 1200.01 127 395 1.100 10000.000 0.000 -1.340
94 282.00 1200.01 126 396 1.100 10000.000 0.000 -1.340
95 285.00 1200.01 121 391 1.100 10000.000 0.000 -1.340
96 288.00 1200.01 107 407 1.100 10000.000 0.000 -1.340
97 291.00 1200.01 126 378 1.100 10000.000 0.000 -1.340
98 294.00 1200.01 124 367 1.100 10000.000 0.000 -1.340
99 297.00 1200.01 129 438 1.100 10000.000 0.000 -1.340
100 300.00 1200.01 142 415 1.100 10000.000 0.000 -1.340
101 303.00 1200.01 136 404 1.100 10000.000 0.000 -1.340
102 306.00 1200.01 122 444 1.100 10000.000 0.000 -1.340
103 309.00 1200.01 129 440 1.100 10000.000 0.000 -1.340
104 312.00 1200.01 142 443 1.100 10000.000 0.000 -1.340
105 315.00 1200.01 141 485 1.100 10000.000 0.000 -1.340
106 318.00 1200.01 159 477 1.100 10000.000 0.000 -1.340
107 321.00 1200.01 164 515 1.100 10000.000 0.000 -1.340
108 324.00 1200.01 167 474 1.100 10000.000 0.000 -1.340
109 327.00 1200.01 143 569 1.100 10000.000 0.000 -1.340
110 330.00 1200.01 162 578 1.100 10000.000 0.000 -1.340
111 333.00 1200.01 144 588 1.100 10000.000 0.000 -1.340
112 336.00 1200.01 174 493 1.100 10000.000 0.000 -1.340
113 339.00 1200.01 147 525 1.100 10000.000 0.000 -1.340
114 342.00 1200.01 167 573 1.100 10000.000 0.000 -1.340
115 345.00 1200.01 151 574 1.100 10000.000 0.000 -1.340
116 348.00 1200.01 144 507 1.100 10000.000 0.000 -1.340
117 351.00 1200.01 159 536 1.100 10000.000 0.000 -1.340
118 354.00 1200.01 167 565 1.100 10000.000 0.000 -1.340
119 357.00 1200.01 124 519 1.100 10000.000 0.000 -1.340
120 360.00 1200.01 187 516 1.100 10000.000 0.000 -1.340
121 363.00 1200.01 113 477 1.100 10000.000 0.000 -1.340
122 366.00 1200.01 147 514 1.100 10000.000 0.000 -1.340
123 369.00 1200.01 136 438 1.100 10000.000 0.000 -1.340
124 372.00 1200.01 146 438 1.100 10000.000 0.000 -1.340
125 375.00 1200.01 134 438 1.100 10000.000 0.000 -1.340
126 378.00 1200.01 137 418 1.100 10000.000 0.000 -1.340
127 381.00 1200.01 124 416 1.100 10000.000 0.000 -1.340
128 384.00 1200.01 131 396 1.100 10000.000 0.000 -1.340
129 387.00 1200.01 117 404 1.100 10000.000 0.000 -1.340
130 390.00 1200.01 126 391 1.100 10000.000 0.000 -1.340
131 393.00 1200.01 121 373 1.100 10000.000 0.000 -1.340
132 396.00 1200.01 116 418 1.100 10000.000 0.000 -1.340
133 399.00 1200.01 119 362 1.100 10000.000 0.000 -1.340
134 402.00 1200.01 146 397 1.100 10000.000 0.000 -1.340
