# BinNR microsec tot-time (s)  O-Beam AUX Ampl(V) f(Hz) phase(deg) chi(pos)
0 0.00 1200.01 62 175 1.100 10000.000 0.000 0.670
1 3.00 1200.01 99 327 1.100 10000.000 0.000 0.670
2 6.00 1200.01 108 341 1.100 10000.000 0.000 0.670
3 9.00 1200.01 105 359 1.100 10000.000 0.000 0.670
4 12.00 1200.01 129 405 1.100 10000.000 0.000 0.670
5 15.00 1200.01 134 416 1.100 10000.000 0.000 0.670
6 18.00 1200.01 131 377 1.100 10000.000 0.000 0.670
7 21.00 1200.01 133 427 1.100 10000.000 0.000 0.670
8 24.00 1200.01 141 432 1.100 10000.000 0.000 0.670
9 27.00 1200.01 133 432 1.100 10000.000 0.000 0.670
10 30.00 1200.01 131 461 1.100 10000.000 0.000 0.670
11 33.00 1200.01 141 444 1.100 10000.000 0.000 0.670
12 36.00 1200.01 141 496 1.100 10000.000 0.000 0.670
13 39.00 1200.01 145 471 1.100 10000.000 0.000 0.670
14 42.00 1200.01 156 419 1.100 10000.000 0.000 0.670
15 45.00 1200.01 135 416 1.100 10000.000 0.000 0.670
16 48.00 1200.01 126 450 1.100 10000.000 0.000 0.670
17 51.00 1200.01 136 417 1.100 10000.000 0.000 0.670
18 54.00 1200.01 123 477 1.100 10000.000 0.000 0.670
19 57.00 1200.01 129 430 1.100 10000.000 0.000 0.670
20 60.00 1200.01 123 413 1.100 10000.000 0.000 0.670
21 63.00 1200.01 126 410 1.100 10000.000 0.000 0.670
22 66.00 1200.01 98 369 1.100 10000.000 0.000 0.670
23 69.00 1200.01 125 396 1.100 10000.000 0.000 0.670
24 72.00 1200.01 112 341 1.100 10000.000 0.000 0.670
25 75.00 1200.01 117 347 1.100 10000.000 0.000 0.670
26 78.00 1200.01 101 363 1.100 10000.000 0.000 0.670
27 81.00 1200.01 110 368 1.100 10000.000 0.000 0.670
28 84.00 1200.01 111 369 1.100 10000.000 0.000 0.670
29 87.00 1200.01 111 335 1.100 10000.000 0.000 0.670
30 90.00 1200.01 91 319 1.100 10000.000 0.000 0.670
31 93.00 1200.01 114 296 1.100 10000.000 0.000 0.670
32 96.00 1200.01 108 362 1.100 10000.000 0.000 0.670
33 99.00 1200.01 119 335 1.100 10000.000 0.000 0.670
34 102.00 1200.01 125 356 1.100 10000.000 0.000 0.670
35 105.00 1200.01 125 318 1.100 10000.000 0.000 0.670
36 108.00 1200.01 131 322 1.100 10000.000 0.000 0.670
37 111.00 1200.01 122 447 1.100 10000.000 0.000 0.670
38 114.00 1200.01 112 414 1.100 10000.000 0.000 0.670
39 117.00 1200.01 109 398 1.100 10000.000 0.000 0.670
40 120.00 1200.01 131 437 1.100 10000.000 0.000 0.670
41 123.00 1200.01 118 435 1.100 10000.000 0.000 0.670
42 126.00 1200.01 150 436 1.100 10000.000 0.000 0.670
43 129.00 1200.01 116 445 1.100 10000.000 0.000 0.670
44 132.00 1200.01 131 444 1.100 10000.000 0.000 0.670
45 135.00 1200.01 143 513 1.100 10000.000 0.000 0.670
46 138.00 1200.01 156 479 1.100 10000.000 0.000 0.670
47 141.00 1200.01 134 457 1.100 10000.000 0.000 0.670
48 144.00 1200.01 138 412 1.100 10000.000 0.000 0.670
49 147.00 1200.01 137 439 1.100 10000.000 0.000 0.670
50 150.00 1200.01 164 495 1.100 10000.000 0.000 0.670
51 153.00 1200.01 145 452 1.100 10000.000 0.000 0.670
52 156.00 1200.01 104 432 1.100 10000.000 0.000 0.670
53 159.00 1200.01 138 436 1.100 10000.000 0.000 0.670
54 162.00 1200.01 128 428 1.100 10000.000 0.000 0.670
55 165.00 1200.01 116 395 1.100 10000.000 0.000 0.670
56 168.00 1200.01 107 367 1.100 10000.000 0.000 0.670
57 171.00 1200.01 102 345 1.100 10000.000 0.000 0.670
58 174.00 1200.01 99 352 1.100 10000.000 0.000 0.670
59 177.00 1200.01 115 322 1.100 10000.000 0.000 0.670
60 180.00 1200.01 97 326 1.100 10000.000 0.000 0.670
61 183.00 1200.01 107 337 1.100 10000.000 0.000 0.670
62 186.00 1200.01 110 328 1.100 10000.000 0.000 0.670
63 189.00 1200.01 99 296 1.100 10000.000 0.000 0.670
64 192.00 1200.01 91 327 1.100 10000.000 0.000 0.670
65 195.00 1200.01 103 315 1.100 10000.000 0.000 0.670
66 198.00 1200.01 129 308 1.100 10000.000 0.000 0.670
67 201.00 1200.01 111 340 1.100 10000.000 0.000 0.670
68 204.00 1200.01 122 369 1.100 10000.000 0.000 0.670
69 207.00 1200.01 131 329 1.100 10000.000 0.000 0.670
70 210.00 1200.01 104 369 1.100 10000.000 0.000 0.670
71 213.00 1200.01 108 385 1.100 10000.000 0.000 0.670
72 216.00 1200.01 110 422 1.100 10000.000 0.000 0.670
73 219.00 1200.01 131 429 1.100 10000.000 0.000 0.670
74 222.00 1200.01 139 427 1.100 10000.000 0.000 0.670
75 225.00 1200.01 138 455 1.100 10000.000 0.000 0.670
76 228.00 1200.01 139 452 1.100 10000.000 0.000 0.670
77 231.00 1200.01 163 438 1.100 10000.000 0.000 0.670
78 234.00 1200.01 135 448 1.100 10000.000 0.000 0.670
79 237.00 1200.01 115 461 1.100 10000.000 0.000 0.670
80 240.00 1200.01 143 472 1.100 10000.000 0.000 0.670
81 243.00 1200.01 134 491 1.100 10000.000 0.000 0.670
82 246.00 1200.01 121 473 1.100 10000.000 0.000 0.670
83 249.00 1200.01 141 456 1.100 10000.000 0.000 0.670
84 252.00 1200.01 132 436 1.100 10000.000 0.000 0.670
85 255.00 1200.01 135 422 1.100 10000.000 0.000 0.670
86 258.00 1200.01 119 415 1.100 10000.000 0.000 0.670
87 261.00 1200.01 128 409 1.100 10000.000 0.000 0.670
88 264.00 1200.01 103 412 1.100 10000.000 0.000 0.670
89 267.00 1200.01 123 365 1.100 10000.000 0.000 0.670
90 270.00 1200.01 113 392 1.100 10000.000 0.000 0.670
91 273.00 1200.01 110 357 1.100 10000.000 0.000 0.670
92 276.00 1200.01 115 385 1.100 10000.000 0.000 0.670
93 279.00 1200.01 97 335 1.100 10000.000 0.000 0.670
94 282.00 1200.01 104 346 1.100 10000.000 0.000 0.670
95 285.00 1200.01 104 296 1.100 10000.000 0.000 0.670
96 288.00 1200.01 98 340 1.100 10000.000 0.000 0.670
97 291.00 1200.01 109 302 1.100 10000.000 0.000 0.670
98 294.00 1200.01 125 286 1.100 10000.000 0.000 0.670
99 297.00 1200.01 117 294 1.100 10000.000 0.000 0.670
100 300.00 1200.01 94 337 1.100 10000.000 0.000 0.670
101 303.00 1200.01 105 362 1.100 10000.000 0.000 0.670
102 306.00 1200.01 123 357 1.100 10000.000 0.000 0.670
103 309.00 1200.01 133 344 1.100 10000.000 0.000 0.670
104 312.00 1200.01 112 364 1.100 10000.000 0.000 0.670
105 315.00 1200.01 120 384 1.100 10000.000 0.000 0.670
106 318.00 1200.01 108 386 1.100 10000.000 0.000 0.670
107 321.00 1200.01 127 419 1.100 10000.000 0.000 0.670
108 324.00 1200.01 142 423 1.100 10000.000 0.000 0.670
109 327.00 1200.01 135 448 1.100 10000.000 0.000 0.670
110 330.00 1200.01 137 439 1.100 10000.000 0.000 0.670
111 333.00 1200.01 131 439 1.100 10000.000 0.000 0.670
112 336.00 1200.01 131 476 1.100 10000.000 0.000 0.670
113 339.00 1200.01 132 477 1.100 10000.000 0.000 0.670
114 342.00 1200.01 142 470 1.100 10000.000 0.000 0.670
115 345.00 1200.01 150 479 1.100 10000.000 0.000 0.670
116 348.00 1200.01 142 436 1.100 10000.000 0.000 0.670
117 351.00 1200.01 136 422 1.100 10000.000 0.000 0.670
118 354.00 1200.01 138 449 1.100 10000.000 0.000 0.670
119 357.00 1200.01 136 398 1.100 10000.000 0.000 0.670
120 360.00 1200.01 118 409 1.100 10000.000 0.000 0.670
121 363.00 1200.01 142 373 1.100 10000.000 0.000 0.670
122 366.00 1200.01 120 385 1.100 10000.000 0.000 0.670
123 369.00 1200.01 135 348 1.100 10000.000 0.000 0.670
124 372.00 1200.01 114 342 1.100 10000.000 0.000 0.670
125 375.00 1200.01 132 371 1.100 10000.000 0.000 0.670
126 378.00 1200.01 119 358 1.100 10000.000 0.000 0.670
127 381.00 1200.01 116 282 1.100 10000.000 0.000 0.670
128 384.00 1200.01 97 340 1.100 10000.000 0.000 0.670
129 387.00 1200.01 116 334 1.100 10000.000 0.000 0.670
130 390.00 1200.01 93 309 1.100 10000.000 0.000 0.670
131 393.00 1200.01 98 301 1.100 10000.000 0.000 0.670
132 396.00 1200.01 124 321 1.100 10000.000 0.000 0.670
133 399.00 1200.01 97 317 1.100 10000.000 0.000 0.670
134 402.00 1200.01 124 324 1.100 10000.000 0.000 0.670
