# BinNR microsec tot-time (s)  O-Beam AUX Ampl(V) f(Hz) phase(deg) chi(pos)
0 0.00 1200.01 138 426 1.100 10000.000 0.000 -1.000
1 3.00 1200.01 294 909 1.100 10000.000 0.000 -1.000
2 6.00 1200.01 291 940 1.100 10000.000 0.000 -1.000
3 9.00 1200.01 261 917 1.100 10000.000 0.000 -1.000
4 12.00 1200.01 283 861 1.100 10000.000 0.000 -1.000
5 15.00 1200.01 284 898 1.100 10000.000 0.000 -1.000
6 18.00 1200.01 286 976 1.100 10000.000 0.000 -1.000
7 21.00 1200.01 304 926 1.100 10000.000 0.000 -1.000
8 24.00 1200.01 298 968 1.100 10000.000 0.000 -1.000
9 27.00 1200.01 275 956 1.100 10000.000 0.000 -1.000
10 30.00 1200.01 308 1009 1.100 10000.000 0.000 -1.000
11 33.00 1200.01 292 998 1.100 10000.000 0.000 -1.000
12 36.00 1200.01 289 977 1.100 10000.000 0.000 -1.000
13 39.00 1200.01 306 982 1.100 10000.000 0.000 -1.000
14 42.00 1200.01 320 877 1.100 10000.000 0.000 -1.000
15 45.00 1200.01 289 943 1.100 10000.000 0.000 -1.000
16 48.00 1200.01 302 967 1.100 10000.000 0.000 -1.000
17 51.00 1200.01 282 949 1.100 10000.000 0.000 -1.000
18 54.00 1200.01 317 993 1.100 10000.000 0.000 -1.000
19 57.00 1200.01 340 962 1.100 10000.000 0.000 -1.000
20 60.00 1200.01 267 933 1.100 10000.000 0.000 -1.000
21 63.00 1200.01 279 949 1.100 10000.000 0.000 -1.000
22 66.00 1200.01 248 962 1.100 10000.000 0.000 -1.000
23 69.00 1200.01 258 856 1.100 10000.000 0.000 -1.000
24 72.00 1200.01 256 886 1.100 10000.000 0.000 -1.000
25 75.00 1200.01 278 862 1.100 10000.000 0.000 -1.000
26 78.00 1200.01 286 837 1.100 10000.000 0.000 -1.000
27 81.00 1200.01 272 849 1.100 10000.000 0.000 -1.000
28 84.00 1200.01 279 848 1.100 10000.000 0.000 -1.000
29 87.00 1200.01 273 835 1.100 10000.000 0.000 -1.000
30 90.00 1200.01 256 897 1.100 10000.000 0.000 -1.000
31 93.00 1200.01 296 852 1.100 10000.000 0.000 -1.000
32 96.00 1200.01 264 880 1.100 10000.000 0.000 -1.000
33 99.00 1200.01 265 886 1.100 10000.000 0.000 -1.000
34 102.00 1200.01 300 855 1.100 10000.000 0.000 -1.000
35 105.00 1200.01 277 798 1.100 10000.000 0.000 -1.000
36 108.00 1200.01 279 930 1.100 10000.000 0.000 -1.000
37 111.00 1200.01 297 961 1.100 10000.000 0.000 -1.000
38 114.00 1200.01 277 923 1.100 10000.000 0.000 -1.000
39 117.00 1200.01 272 932 1.100 10000.000 0.000 -1.000
40 120.00 1200.01 301 933 1.100 10000.000 0.000 -1.000
41 123.00 1200.01 290 956 1.100 10000.000 0.000 -1.000
42 126.00 1200.01 309 1010 1.100 10000.000 0.000 -1.000
43 129.00 1200.01 296 977 1.100 10000.000 0.000 -1.000
44 132.00 1200.01 290 989 1.100 10000.000 0.000 -1.000
45 135.00 1200.01 269 992 1.100 10000.000 0.000 -1.000
46 138.00 1200.01 330 1012 1.100 10000.000 0.000 -1.000
47 141.00 1200.01 317 1055 1.100 10000.000 0.000 -1.000
48 144.00 1200.01 285 919 1.100 10000.000 0.000 -1.000
49 147.00 1200.01 289 908 1.100 10000.000 0.000 -1.000
50 150.00 1200.01 318 978 1.100 10000.000 0.000 -1.000
51 153.00 1200.01 309 972 1.100 10000.000 0.000 -1.000
52 156.00 1200.01 296 1010 1.100 10000.000 0.000 -1.000
53 159.00 1200.01 270 953 1.100 10000.000 0.000 -1.000
54 162.00 1200.01 281 889 1.100 10000.000 0.000 -1.000
55 165.00 1200.01 280 888 1.100 10000.000 0.000 -1.000
56 168.00 1200.01 291 963 1.100 10000.000 0.000 -1.000
57 171.00 1200.01 265 946 1.100 10000.000 0.000 -1.000
58 174.00 1200.01 255 875 1.100 10000.000 0.000 -1.000
59 177.00 1200.01 282 932 1.100 10000.000 0.000 -1.000
60 180.00 1200.01 286 911 1.100 10000.000 0.000 -1.000
61 183.00 1200.01 263 865 1.100 10000.000 0.000 -1.000
62 186.00 1200.01 247 804 1.100 10000.000 0.000 -1.000
63 189.00 1200.01 258 751 1.100 10000.000 0.000 -1.000
64 192.00 1200.01 272 844 1.100 10000.000 0.000 -1.000
65 195.00 1200.01 261 845 1.100 10000.000 0.000 -1.000
66 198.00 1200.01 276 859 1.100 10000.000 0.000 -1.000
67 201.00 1200.01 300 860 1.100 10000.000 0.000 -1.000
68 204.00 1200.01 279 857 1.100 10000.000 0.000 -1.000
69 207.00 1200.01 270 897 1.100 10000.000 0.000 -1.000
70 210.00 1200.01 304 945 1.100 10000.000 0.000 -1.000
71 213.00 1200.01 293 919 1.100 10000.000 0.000 -1.000
72 216.00 1200.01 269 949 1.100 10000.000 0.000 -1.000
73 219.00 1200.01 282 969 1.100 10000.000 0.000 -1.000
74 222.00 1200.01 309 973 1.100 10000.000 0.000 -1.000
75 225.00 1200.01 318 942 1.100 10000.000 0.000 -1.000
76 228.00 1200.01 293 956 1.100 10000.000 0.000 -1.000
77 231.00 1200.01 277 938 1.100 10000.000 0.000 -1.000
78 234.00 1200.01 313 999 1.100 10000.000 0.000 -1.000
79 237.00 1200.01 258 956 1.100 10000.000 0.000 -1.000
80 240.00 1200.01 277 1047 1.100 10000.000 0.000 -1.000
81 243.00 1200.01 329 952 1.100 10000.000 0.000 -1.000
82 246.00 1200.01 317 944 1.100 10000.000 0.000 -1.000
83 249.00 1200.01 293 936 1.100 10000.000 0.000 -1.000
84 252.00 1200.01 263 978 1.100 10000.000 0.000 -1.000
85 255.00 1200.01 312 909 1.100 10000.000 0.000 -1.000
86 258.00 1200.01 304 987 1.100 10000.000 0.000 -1.000
87 261.00 1200.01 310 918 1.100 10000.000 0.000 -1.000
88 264.00 1200.01 314 951 1.100 10000.000 0.000 -1.000
89 267.00 1200.01 262 904 1.100 10000.000 0.000 -1.000
90 270.00 1200.01 267 940 1.100 10000.000 0.000 -1.000
91 273.00 1200.01 259 865 1.100 10000.000 0.000 -1.000
92 276.00 1200.01 270 882 1.100 10000.000 0.000 -1.000
93 279.00 1200.01 248 849 1.100 10000.000 0.000 -1.000
94 282.00 1200.01 269 889 1.100 10000.000 0.000 -1.000
95 285.00 1200.01 267 825 1.100 10000.000 0.000 -1.000
96 288.00 1200.01 279 855 1.100 10000.000 0.000 -1.000
97 291.00 1200.01 259 875 1.100 10000.000 0.000 -1.000
98 294.00 1200.01 256 873 1.100 10000.000 0.000 -1.000
99 297.00 1200.01 282 824 1.100 10000.000 0.000 -1.000
100 300.00 1200.01 287 878 1.100 10000.000 0.000 -1.000
101 303.00 1200.01 254 814 1.100 10000.000 0.000 -1.000
102 306.00 1200.01 258 881 1.100 10000.000 0.000 -1.000
103 309.00 1200.01 287 931 1.100 10000.000 0.000 -1.000
104 312.00 1200.01 292 915 1.100 10000.000 0.000 -1.000
105 315.00 1200.01 288 932 1.100 10000.000 0.000 -1.000
106 318.00 1200.01 302 943 1.100 10000.000 0.000 -1.000
107 321.00 1200.01 287 944 1.100 10000.000 0.000 -1.000
108 324.00 1200.01 298 963 1.100 10000.000 0.000 -1.000
109 327.00 1200.01 252 956 1.100 10000.000 0.000 -1.000
110 330.00 1200.01 316 995 1.100 10000.000 0.000 -1.000
111 333.00 1200.01 285 931 1.100 10000.000 0.000 -1.000
112 336.00 1200.01 301 1017 1.100 10000.000 0.000 -1.000
113 339.00 1200.01 298 1011 1.100 10000.000 0.000 -1.000
114 342.00 1200.01 327 1008 1.100 10000.000 0.000 -1.000
115 345.00 1200.01 291 979 1.100 10000.000 0.000 -1.000
116 348.00 1200.01 282 1016 1.100 10000.000 0.000 -1.000
117 351.00 1200.01 253 982 1.100 10000.000 0.000 -1.000
118 354.00 1200.01 292 998 1.100 10000.000 0.000 -1.000
119 357.00 1200.01 271 988 1.100 10000.000 0.000 -1.000
120 360.00 1200.01 285 937 1.100 10000.000 0.000 -1.000
121 363.00 1200.01 296 946 1.100 10000.000 0.000 -1.000
122 366.00 1200.01 306 940 1.100 10000.000 0.000 -1.000
123 369.00 1200.01 273 887 1.100 10000.000 0.000 -1.000
124 372.00 1200.01 306 917 1.100 10000.000 0.000 -1.000
125 375.00 1200.01 283 879 1.100 10000.000 0.000 -1.000
126 378.00 1200.01 246 871 1.100 10000.000 0.000 -1.000
127 381.00 1200.01 259 843 1.100 10000.000 0.000 -1.000
128 384.00 1200.01 280 833 1.100 10000.000 0.000 -1.000
129 387.00 1200.01 257 909 1.100 10000.000 0.000 -1.000
130 390.00 1200.01 279 851 1.100 10000.000 0.000 -1.000
131 393.00 1200.01 260 805 1.100 10000.000 0.000 -1.000
132 396.00 1200.01 250 869 1.100 10000.000 0.000 -1.000
133 399.00 1200.01 293 843 1.100 10000.000 0.000 -1.000
134 402.00 1200.01 270 857 1.100 10000.000 0.000 -1.000
