# BinNR microsec tot-time (s)  O-Beam AUX Ampl(V) f(Hz) phase(deg) chi(pos)
0 0.00 1200.00 120 391 1.100 10000.000 0.000 0.989
1 3.00 1200.00 235 856 1.100 10000.000 0.000 0.989
2 6.00 1200.00 259 857 1.100 10000.000 0.000 0.989
3 9.00 1200.00 273 857 1.100 10000.000 0.000 0.989
4 12.00 1200.00 282 909 1.100 10000.000 0.000 0.989
5 15.00 1200.00 285 909 1.100 10000.000 0.000 0.989
6 18.00 1200.00 303 994 1.100 10000.000 0.000 0.989
7 21.00 1200.00 284 898 1.100 10000.000 0.000 0.989
8 24.00 1200.00 290 945 1.100 10000.000 0.000 0.989
9 27.00 1200.00 279 874 1.100 10000.000 0.000 0.989
10 30.00 1200.00 305 977 1.100 10000.000 0.000 0.989
11 33.00 1200.00 297 859 1.100 10000.000 0.000 0.989
12 36.00 1200.00 318 884 1.100 10000.000 0.000 0.989
13 39.00 1200.00 305 883 1.100 10000.000 0.000 0.989
14 42.00 1200.00 293 916 1.100 10000.000 0.000 0.989
15 45.00 1200.00 286 925 1.100 10000.000 0.000 0.989
16 48.00 1200.00 304 909 1.100 10000.000 0.000 0.989
17 51.00 1200.00 294 909 1.100 10000.000 0.000 0.989
18 54.00 1200.00 254 996 1.100 10000.000 0.000 0.989
19 57.00 1200.00 286 905 1.100 10000.000 0.000 0.989
20 60.00 1200.00 258 864 1.100 10000.000 0.000 0.989
21 63.00 1200.00 281 859 1.100 10000.000 0.000 0.989
22 66.00 1200.00 289 918 1.100 10000.000 0.000 0.989
23 69.00 1200.00 248 828 1.100 10000.000 0.000 0.989
24 72.00 1200.00 231 840 1.100 10000.000 0.000 0.989
25 75.00 1200.00 283 841 1.100 10000.000 0.000 0.989
26 78.00 1200.00 240 900 1.100 10000.000 0.000 0.989
27 81.00 1200.00 248 822 1.100 10000.000 0.000 0.989
28 84.00 1200.00 234 714 1.100 10000.000 0.000 0.989
29 87.00 1200.00 246 775 1.100 10000.000 0.000 0.989
30 90.00 1200.00 232 825 1.100 10000.000 0.000 0.989
31 93.00 1200.00 217 826 1.100 10000.000 0.000 0.989
32 96.00 1200.00 279 830 1.100 10000.000 0.000 0.989
33 99.00 1200.00 239 829 1.100 10000.000 0.000 0.989
34 102.00 1200.00 269 824 1.100 10000.000 0.000 0.989
35 105.00 1200.00 243 796 1.100 10000.000 0.000 0.989
36 108.00 1200.00 277 879 1.100 10000.000 0.000 0.989
37 111.00 1200.00 256 845 1.100 10000.000 0.000 0.989
38 114.00 1200.00 259 858 1.100 10000.000 0.000 0.989
39 117.00 1200.00 269 920 1.100 10000.000 0.000 0.989
40 120.00 1200.00 307 842 1.100 10000.000 0.000 0.989
41 123.00 1200.00 260 905 1.100 10000.000 0.000 0.989
42 126.00 1200.00 302 962 1.100 10000.000 0.000 0.989
43 129.00 1200.00 274 870 1.100 10000.000 0.000 0.989
44 132.00 1200.00 291 953 1.100 10000.000 0.000 0.989
45 135.00 1200.00 256 928 1.100 10000.000 0.000 0.989
46 138.00 1200.00 266 949 1.100 10000.000 0.000 0.989
47 141.00 1200.00 267 903 1.100 10000.000 0.000 0.989
48 144.00 1200.00 311 956 1.100 10000.000 0.000 0.989
49 147.00 1200.00 286 960 1.100 10000.000 0.000 0.989
50 150.00 1200.00 253 913 1.100 10000.000 0.000 0.989
51 153.00 1200.00 273 924 1.100 10000.000 0.000 0.989
52 156.00 1200.00 281 939 1.100 10000.000 0.000 0.989
53 159.00 1200.00 257 857 1.100 10000.000 0.000 0.989
54 162.00 1200.00 277 868 1.100 10000.000 0.000 0.989
55 165.00 1200.00 266 905 1.100 10000.000 0.000 0.989
56 168.00 1200.00 240 858 1.100 10000.000 0.000 0.989
57 171.00 1200.00 228 834 1.100 10000.000 0.000 0.989
58 174.00 1200.00 251 819 1.100 10000.000 0.000 0.989
59 177.00 1200.00 236 820 1.100 10000.000 0.000 0.989
60 180.00 1200.00 255 817 1.100 10000.000 0.000 0.989
61 183.00 1200.00 257 777 1.100 10000.000 0.000 0.989
62 186.00 1200.00 238 837 1.100 10000.000 0.000 0.989
63 189.00 1200.00 254 750 1.100 10000.000 0.000 0.989
64 192.00 1200.00 267 783 1.100 10000.000 0.000 0.989
65 195.00 1200.00 235 833 1.100 10000.000 0.000 0.989
66 198.00 1200.00 232 820 1.100 10000.000 0.000 0.989
67 201.00 1200.00 272 800 1.100 10000.000 0.000 0.989
68 204.00 1200.00 243 845 1.100 10000.000 0.000 0.989
69 207.00 1200.00 296 835 1.100 10000.000 0.000 0.989
70 210.00 1200.00 261 868 1.100 10000.000 0.000 0.989
71 213.00 1200.00 259 856 1.100 10000.000 0.000 0.989
72 216.00 1200.00 258 932 1.100 10000.000 0.000 0.989
73 219.00 1200.00 294 917 1.100 10000.000 0.000 0.989
74 222.00 1200.00 306 887 1.100 10000.000 0.000 0.989
75 225.00 1200.00 278 936 1.100 10000.000 0.000 0.989
76 228.00 1200.00 267 918 1.100 10000.000 0.000 0.989
77 231.00 1200.00 296 914 1.100 10000.000 0.000 0.989
78 234.00 1200.00 258 882 1.100 10000.000 0.000 0.989
79 237.00 1200.00 295 895 1.100 10000.000 0.000 0.989
80 240.00 1200.00 297 964 1.100 10000.000 0.000 0.989
81 243.00 1200.00 296 889 1.100 10000.000 0.000 0.989
82 246.00 1200.00 279 928 1.100 10000.000 0.000 0.989
83 249.00 1200.00 273 888 1.100 10000.000 0.000 0.989
84 252.00 1200.00 286 975 1.100 10000.000 0.000 0.989
85 255.00 1200.00 304 927 1.100 10000.000 0.000 0.989
86 258.00 1200.00 277 859 1.100 10000.000 0.000 0.989
87 261.00 1200.00 306 901 1.100 10000.000 0.000 0.989
88 264.00 1200.00 278 888 1.100 10000.000 0.000 0.989
89 267.00 1200.00 261 850 1.100 10000.000 0.000 0.989
90 270.00 1200.00 247 813 1.100 10000.000 0.000 0.989
91 273.00 1200.00 243 798 1.100 10000.000 0.000 0.989
92 276.00 1200.00 262 841 1.100 10000.000 0.000 0.989
93 279.00 1200.00 256 823 1.100 10000.000 0.000 0.989
94 282.00 1200.00 290 832 1.100 10000.000 0.000 0.989
95 285.00 1200.00 245 836 1.100 10000.000 0.000 0.989
96 288.00 1200.00 271 829 1.100 10000.000 0.000 0.989
97 291.00 1200.00 226 832 1.100 10000.000 0.000 0.989
98 294.00 1200.00 240 792 1.100 10000.000 0.000 0.989
99 297.00 1200.00 248 780 1.100 10000.000 0.000 0.989
100 300.00 1200.00 250 861 1.100 10000.000 0.000 0.989
101 303.00 1200.00 269 815 1.100 10000.000 0.000 0.989
102 306.00 1200.00 283 817 1.100 10000.000 0.000 0.989
103 309.00 1200.00 272 835 1.100 10000.000 0.000 0.989
104 312.00 1200.00 269 865 1.100 10000.000 0.000 0.989
105 315.00 1200.00 272 890 1.100 10000.000 0.000 0.989
106 318.00 1200.00 275 899 1.100 10000.000 0.000 0.989
107 321.00 1200.00 270 856 1.100 10000.000 0.000 0.989
108 324.00 1200.00 266 897 1.100 10000.000 0.000 0.989
109 327.00 1200.00 290 921 1.100 10000.000 0.000 0.989
110 330.00 1200.00 314 851 1.100 10000.000 0.000 0.989
111 333.00 1200.00 259 895 1.100 10000.000 0.000 0.989
112 336.00 1200.00 306 918 1.100 10000.000 0.000 0.989
113 339.00 1200.00 278 926 1.100 10000.000 0.000 0.989
114 342.00 1200.00 293 970 1.100 10000.000 0.000 0.989
115 345.00 1200.00 286 1002 1.100 10000.000 0.000 0.989
116 348.00 1200.00 310 926 1.100 10000.000 0.000 0.989
117 351.00 1200.00 295 937 1.100 10000.000 0.000 0.989
118 354.00 1200.00 278 897 1.100 10000.000 0.000 0.989
119 357.00 1200.00 297 872 1.100 10000.000 0.000 0.989
120 360.00 1200.00 281 938 1.100 10000.000 0.000 0.989
121 363.00 1200.00 259 871 1.100 10000.000 0.000 0.989
122 366.00 1200.00 257 852 1.100 10000.000 0.000 0.989
123 369.00 1200.00 265 864 1.100 10000.000 0.000 0.989
124 372.00 1200.00 271 863 1.100 10000.000 0.000 0.989
125 375.00 1200.00 240 835 1.100 10000.000 0.000 0.989
126 378.00 1200.00 253 782 1.100 10000.000 0.000 0.989
127 381.00 1200.00 251 829 1.100 10000.000 0.000 0.989
128 384.00 1200.00 259 879 1.100 10000.000 0.000 0.989
129 387.00 1200.00 249 796 1.100 10000.000 0.000 0.989
130 390.00 1200.00 241 805 1.100 10000.000 0.000 0.989
131 393.00 1200.00 259 790 1.100 10000.000 0.000 0.989
132 396.00 1200.00 260 806 1.100 10000.000 0.000 0.989
133 399.00 1200.00 220 781 1.100 10000.000 0.000 0.989
134 402.00 1200.00 256 852 1.100 10000.000 0.000 0.989
