# BinNR microsec tot-time (s)  O-Beam AUX Ampl(V) f(Hz) phase(deg) chi(pos)
0 0.00 1200.00 147 502 1.100 10000.000 0.000 -0.835
1 3.00 1200.00 313 1081 1.100 10000.000 0.000 -0.835
2 6.00 1200.00 338 1023 1.100 10000.000 0.000 -0.835
3 9.00 1200.00 328 995 1.100 10000.000 0.000 -0.835
4 12.00 1200.00 333 1037 1.100 10000.000 0.000 -0.835
5 15.00 1200.00 357 1003 1.100 10000.000 0.000 -0.835
6 18.00 1200.00 383 1028 1.100 10000.000 0.000 -0.835
7 21.00 1200.00 305 1040 1.100 10000.000 0.000 -0.835
8 24.00 1200.00 345 996 1.100 10000.000 0.000 -0.835
9 27.00 1200.00 380 1037 1.100 10000.000 0.000 -0.835
10 30.00 1200.00 368 1044 1.100 10000.000 0.000 -0.835
11 33.00 1200.00 333 1020 1.100 10000.000 0.000 -0.835
12 36.00 1200.00 331 1110 1.100 10000.000 0.000 -0.835
13 39.00 1200.00 359 1075 1.100 10000.000 0.000 -0.835
14 42.00 1200.00 365 1059 1.100 10000.000 0.000 -0.835
15 45.00 1200.00 344 1090 1.100 10000.000 0.000 -0.835
16 48.00 1200.00 368 1083 1.100 10000.000 0.000 -0.835
17 51.00 1200.00 340 1016 1.100 10000.000 0.000 -0.835
18 54.00 1200.00 347 1035 1.100 10000.000 0.000 -0.835
19 57.00 1200.00 341 1064 1.100 10000.000 0.000 -0.835
20 60.00 1200.00 365 1088 1.100 10000.000 0.000 -0.835
21 63.00 1200.00 345 1018 1.100 10000.000 0.000 -0.835
22 66.00 1200.00 343 1070 1.100 10000.000 0.000 -0.835
23 69.00 1200.00 334 1031 1.100 10000.000 0.000 -0.835
24 72.00 1200.00 341 1049 1.100 10000.000 0.000 -0.835
25 75.00 1200.00 329 996 1.100 10000.000 0.000 -0.835
26 78.00 1200.00 293 1013 1.100 10000.000 0.000 -0.835
27 81.00 1200.00 291 974 1.100 10000.000 0.000 -0.835
28 84.00 1200.00 336 1030 1.100 10000.000 0.000 -0.835
29 87.00 1200.00 319 993 1.100 10000.000 0.000 -0.835
30 90.00 1200.00 334 1058 1.100 10000.000 0.000 -0.835
31 93.00 1200.00 328 1038 1.100 10000.000 0.000 -0.835
32 96.00 1200.00 329 997 1.100 10000.000 0.000 -0.835
33 99.00 1200.00 297 1031 1.100 10000.000 0.000 -0.835
34 102.00 1200.00 366 1023 1.100 10000.000 0.000 -0.835
35 105.00 1200.00 334 1071 1.100 10000.000 0.000 -0.835
36 108.00 1200.00 334 1056 1.100 10000.000 0.000 -0.835
37 111.00 1200.00 377 984 1.100 10000.000 0.000 -0.835
38 114.00 1200.00 342 1106 1.100 10000.000 0.000 -0.835
39 117.00 1200.00 320 1089 1.100 10000.000 0.000 -0.835
40 120.00 1200.00 361 1067 1.100 10000.000 0.000 -0.835
41 123.00 1200.00 352 1022 1.100 10000.000 0.000 -0.835
42 126.00 1200.00 358 1135 1.100 10000.000 0.000 -0.835
43 129.00 1200.00 373 1044 1.100 10000.000 0.000 -0.835
44 132.00 1200.00 382 1047 1.100 10000.000 0.000 -0.835
45 135.00 1200.00 374 1046 1.100 10000.000 0.000 -0.835
46 138.00 1200.00 393 1087 1.100 10000.000 0.000 -0.835
47 141.00 1200.00 356 1051 1.100 10000.000 0.000 -0.835
48 144.00 1200.00 343 1108 1.100 10000.000 0.000 -0.835
49 147.00 1200.00 349 1031 1.100 10000.000 0.000 -0.835
50 150.00 1200.00 357 1091 1.100 10000.000 0.000 -0.835
51 153.00 1200.00 346 1053 1.100 10000.000 0.000 -0.835
52 156.00 1200.00 365 1111 1.100 10000.000 0.000 -0.835
53 159.00 1200.00 354 1027 1.100 10000.000 0.000 -0.835
54 162.00 1200.00 345 1035 1.100 10000.000 0.000 -0.835
55 165.00 1200.00 324 1048 1.100 10000.000 0.000 -0.835
56 168.00 1200.00 350 1065 1.100 10000.000 0.000 -0.835
57 171.00 1200.00 360 997 1.100 10000.000 0.000 -0.835
58 174.00 1200.00 332 1053 1.100 10000.000 0.000 -0.835
59 177.00 1200.00 354 1097 1.100 10000.000 0.000 -0.835
60 180.00 1200.00 312 1064 1.100 10000.000 0.000 -0.835
61 183.00 1200.00 312 1036 1.100 10000.000 0.000 -0.835
62 186.00 1200.00 336 986 1.100 10000.000 0.000 -0.835
63 189.00 1200.00 337 1019 1.100 10000.000 0.000 -0.835
64 192.00 1200.00 315 1028 1.100 10000.000 0.000 -0.835
65 195.00 1200.00 334 998 1.100 10000.000 0.000 -0.835
66 198.00 1200.00 321 999 1.100 10000.000 0.000 -0.835
67 201.00 1200.00 332 969 1.100 10000.000 0.000 -0.835
68 204.00 1200.00 355 1018 1.100 10000.000 0.000 -0.835
69 207.00 1200.00 329 1003 1.100 10000.000 0.000 -0.835
70 210.00 1200.00 332 1046 1.100 10000.000 0.000 -0.835
71 213.00 1200.00 326 1024 1.100 10000.000 0.000 -0.835
72 216.00 1200.00 368 1054 1.100 10000.000 0.000 -0.835
73 219.00 1200.00 380 1094 1.100 10000.000 0.000 -0.835
74 222.00 1200.00 361 1073 1.100 10000.000 0.000 -0.835
75 225.00 1200.00 323 1075 1.100 10000.000 0.000 -0.835
76 228.00 1200.00 363 1083 1.100 10000.000 0.000 -0.835
77 231.00 1200.00 350 1118 1.100 10000.000 0.000 -0.835
78 234.00 1200.00 352 1088 1.100 10000.000 0.000 -0.835
79 237.00 1200.00 402 1045 1.100 10000.000 0.000 -0.835
80 240.00 1200.00 368 1032 1.100 10000.000 0.000 -0.835
81 243.00 1200.00 344 1067 1.100 10000.000 0.000 -0.835
82 246.00 1200.00 337 1102 1.100 10000.000 0.000 -0.835
83 249.00 1200.00 322 1122 1.100 10000.000 0.000 -0.835
84 252.00 1200.00 403 1118 1.100 10000.000 0.000 -0.835
85 255.00 1200.00 331 1005 1.100 10000.000 0.000 -0.835
86 258.00 1200.00 364 1119 1.100 10000.000 0.000 -0.835
87 261.00 1200.00 324 1093 1.100 10000.000 0.000 -0.835
88 264.00 1200.00 337 1078 1.100 10000.000 0.000 -0.835
89 267.00 1200.00 343 1033 1.100 10000.000 0.000 -0.835
90 270.00 1200.00 356 1095 1.100 10000.000 0.000 -0.835
91 273.00 1200.00 306 1039 1.100 10000.000 0.000 -0.835
92 276.00 1200.00 326 1065 1.100 10000.000 0.000 -0.835
93 279.00 1200.00 349 1014 1.100 10000.000 0.000 -0.835
94 282.00 1200.00 328 999 1.100 10000.000 0.000 -0.835
95 285.00 1200.00 336 1041 1.100 10000.000 0.000 -0.835
96 288.00 1200.00 314 1030 1.100 10000.000 0.000 -0.835
97 291.00 1200.00 321 965 1.100 10000.000 0.000 -0.835
98 294.00 1200.00 338 1057 1.100 10000.000 0.000 -0.835
99 297.00 1200.00 303 1031 1.100 10000.000 0.000 -0.835
100 300.00 1200.00 328 1062 1.100 10000.000 0.000 -0.835
101 303.00 1200.00 320 997 1.100 10000.000 0.000 -0.835
102 306.00 1200.00 313 1019 1.100 10000.000 0.000 -0.835
103 309.00 1200.00 321 1016 1.100 10000.000 0.000 -0.835
104 312.00 1200.00 332 1026 1.100 10000.000 0.000 -0.835
105 315.00 1200.00 320 1071 1.100 10000.000 0.000 -0.835
106 318.00 1200.00 345 1056 1.100 10000.000 0.000 -0.835
107 321.00 1200.00 336 1073 1.100 10000.000 0.000 -0.835
108 324.00 1200.00 356 1066 1.100 10000.000 0.000 -0.835
109 327.00 1200.00 339 1076 1.100 10000.000 0.000 -0.835
110 330.00 1200.00 364 1083 1.100 10000.000 0.000 -0.835
111 333.00 1200.00 347 1067 1.100 10000.000 0.000 -0.835
112 336.00 1200.00 329 1052 1.100 10000.000 0.000 -0.835
113 339.00 1200.00 316 1125 1.100 10000.000 0.000 -0.835
114 342.00 1200.00 362 1058 1.100 10000.000 0.000 -0.835
115 345.00 1200.00 380 1032 1.100 10000.000 0.000 -0.835
116 348.00 1200.00 353 1043 1.100 10000.000 0.000 -0.835
117 351.00 1200.00 343 1140 1.100 10000.000 0.000 -0.835
118 354.00 1200.00 406 1072 1.100 10000.000 0.000 -0.835
119 357.00 1200.00 352 1029 1.100 10000.000 0.000 -0.835
120 360.00 1200.00 360 1119 1.100 10000.000 0.000 -0.835
121 363.00 1200.00 315 1082 1.100 10000.000 0.000 -0.835
122 366.00 1200.00 361 1040 1.100 10000.000 0.000 -0.835
123 369.00 1200.00 338 1020 1.100 10000.000 0.000 -0.835
124 372.00 1200.00 344 1034 1.100 10000.000 0.000 -0.835
125 375.00 1200.00 358 1055 1.100 10000.000 0.000 -0.835
126 378.00 1200.00 354 1033 1.100 10000.000 0.000 -0.835
127 381.00 1200.00 336 1041 1.100 10000.000 0.000 -0.835
128 384.00 1200.00 348 1031 1.100 10000.000 0.000 -0.835
129 387.00 1200.00 331 970 1.100 10000.000 0.000 -0.835
130 390.00 1200.00 332 987 1.100 10000.000 0.000 -0.835
131 393.00 1200.00 291 1042 1.100 10000.000 0.000 -0.835
132 396.00 1200.00 319 1024 1.100 10000.000 0.000 -0.835
133 399.00 1200.00 325 1022 1.100 10000.000 0.000 -0.835
134 402.00 1200.00 310 1076 1.100 10000.000 0.000 -0.835
