# BinNR microsec tot-time (s)  O-Beam AUX Ampl(V) f(Hz) phase(deg) chi(pos)
0 0.00 1200.01 101 317 1.100 10000.000 0.000 0.824
1 3.00 1200.01 187 592 1.100 10000.000 0.000 0.824
2 6.00 1200.01 184 590 1.100 10000.000 0.000 0.824
3 9.00 1200.01 181 640 1.100 10000.000 0.000 0.824
4 12.00 1200.01 199 608 1.100 10000.000 0.000 0.824
5 15.00 1200.01 185 677 1.100 10000.000 0.000 0.824
6 18.00 1200.01 199 678 1.100 10000.000 0.000 0.824
7 21.00 1200.01 203 674 1.100 10000.000 0.000 0.824
8 24.00 1200.01 191 687 1.100 10000.000 0.000 0.824
9 27.00 1200.01 204 719 1.100 10000.000 0.000 0.824
10 30.00 1200.01 224 680 1.100 10000.000 0.000 0.824
11 33.00 1200.01 186 683 1.100 10000.000 0.000 0.824
12 36.00 1200.01 198 709 1.100 10000.000 0.000 0.824
13 39.00 1200.01 217 724 1.100 10000.000 0.000 0.824
14 42.00 1200.01 222 683 1.100 10000.000 0.000 0.824
15 45.00 1200.01 218 714 1.100 10000.000 0.000 0.824
16 48.00 1200.01 202 682 1.100 10000.000 0.000 0.824
17 51.00 1200.01 207 669 1.100 10000.000 0.000 0.824
18 54.00 1200.01 184 693 1.100 10000.000 0.000 0.824
19 57.00 1200.01 196 717 1.100 10000.000 0.000 0.824
20 60.00 1200.01 201 691 1.100 10000.000 0.000 0.824
21 63.00 1200.01 170 623 1.100 10000.000 0.000 0.824
22 66.00 1200.01 172 712 1.100 10000.000 0.000 0.824
23 69.00 1200.01 184 625 1.100 10000.000 0.000 0.824
24 72.00 1200.01 191 636 1.100 10000.000 0.000 0.824
25 75.00 1200.01 162 558 1.100 10000.000 0.000 0.824
26 78.00 1200.01 165 552 1.100 10000.000 0.000 0.824
27 81.00 1200.01 169 558 1.100 10000.000 0.000 0.824
28 84.00 1200.01 196 553 1.100 10000.000 0.000 0.824
29 87.00 1200.01 167 584 1.100 10000.000 0.000 0.824
30 90.00 1200.01 176 580 1.100 10000.000 0.000 0.824
31 93.00 1200.01 175 554 1.100 10000.000 0.000 0.824
32 96.00 1200.01 172 581 1.100 10000.000 0.000 0.824
33 99.00 1200.01 165 603 1.100 10000.000 0.000 0.824
34 102.00 1200.01 176 590 1.100 10000.000 0.000 0.824
35 105.00 1200.01 179 565 1.100 10000.000 0.000 0.824
36 108.00 1200.01 170 599 1.100 10000.000 0.000 0.824
37 111.00 1200.01 179 605 1.100 10000.000 0.000 0.824
38 114.00 1200.01 196 619 1.100 10000.000 0.000 0.824
39 117.00 1200.01 209 646 1.100 10000.000 0.000 0.824
40 120.00 1200.01 189 674 1.100 10000.000 0.000 0.824
41 123.00 1200.01 203 603 1.100 10000.000 0.000 0.824
42 126.00 1200.01 196 707 1.100 10000.000 0.000 0.824
43 129.00 1200.01 235 675 1.100 10000.000 0.000 0.824
44 132.00 1200.01 212 659 1.100 10000.000 0.000 0.824
45 135.00 1200.01 226 713 1.100 10000.000 0.000 0.824
46 138.00 1200.01 224 702 1.100 10000.000 0.000 0.824
47 141.00 1200.01 233 692 1.100 10000.000 0.000 0.824
48 144.00 1200.01 214 661 1.100 10000.000 0.000 0.824
49 147.00 1200.01 229 734 1.100 10000.000 0.000 0.824
50 150.00 1200.01 215 738 1.100 10000.000 0.000 0.824
51 153.00 1200.01 216 679 1.100 10000.000 0.000 0.824
52 156.00 1200.01 193 713 1.100 10000.000 0.000 0.824
53 159.00 1200.01 209 670 1.100 10000.000 0.000 0.824
54 162.00 1200.01 193 631 1.100 10000.000 0.000 0.824
55 165.00 1200.01 173 722 1.100 10000.000 0.000 0.824
56 168.00 1200.01 180 610 1.100 10000.000 0.000 0.824
57 171.00 1200.01 182 576 1.100 10000.000 0.000 0.824
58 174.00 1200.01 176 619 1.100 10000.000 0.000 0.824
59 177.00 1200.01 182 587 1.100 10000.000 0.000 0.824
60 180.00 1200.01 165 576 1.100 10000.000 0.000 0.824
61 183.00 1200.01 159 565 1.100 10000.000 0.000 0.824
62 186.00 1200.01 173 554 1.100 10000.000 0.000 0.824
63 189.00 1200.01 148 544 1.100 10000.000 0.000 0.824
64 192.00 1200.01 187 590 1.100 10000.000 0.000 0.824
65 195.00 1200.01 183 504 1.100 10000.000 0.000 0.824
66 198.00 1200.01 184 586 1.100 10000.000 0.000 0.824
67 201.00 1200.01 153 544 1.100 10000.000 0.000 0.824
68 204.00 1200.01 197 572 1.100 10000.000 0.000 0.824
69 207.00 1200.01 185 569 1.100 10000.000 0.000 0.824
70 210.00 1200.01 186 628 1.100 10000.000 0.000 0.824
71 213.00 1200.01 199 687 1.100 10000.000 0.000 0.824
72 216.00 1200.01 203 605 1.100 10000.000 0.000 0.824
73 219.00 1200.01 219 652 1.100 10000.000 0.000 0.824
74 222.00 1200.01 225 675 1.100 10000.000 0.000 0.824
75 225.00 1200.01 206 608 1.100 10000.000 0.000 0.824
76 228.00 1200.01 241 701 1.100 10000.000 0.000 0.824
77 231.00 1200.01 212 717 1.100 10000.000 0.000 0.824
78 234.00 1200.01 226 703 1.100 10000.000 0.000 0.824
79 237.00 1200.01 217 715 1.100 10000.000 0.000 0.824
80 240.00 1200.01 206 725 1.100 10000.000 0.000 0.824
81 243.00 1200.01 225 719 1.100 10000.000 0.000 0.824
82 246.00 1200.01 220 749 1.100 10000.000 0.000 0.824
83 249.00 1200.01 208 693 1.100 10000.000 0.000 0.824
84 252.00 1200.01 199 681 1.100 10000.000 0.000 0.824
85 255.00 1200.01 203 703 1.100 10000.000 0.000 0.824
86 258.00 1200.01 210 655 1.100 10000.000 0.000 0.824
87 261.00 1200.01 208 650 1.100 10000.000 0.000 0.824
88 264.00 1200.01 195 651 1.100 10000.000 0.000 0.824
89 267.00 1200.01 177 635 1.100 10000.000 0.000 0.824
90 270.00 1200.01 192 612 1.100 10000.000 0.000 0.824
91 273.00 1200.01 189 600 1.100 10000.000 0.000 0.824
92 276.00 1200.01 195 584 1.100 10000.000 0.000 0.824
93 279.00 1200.01 160 593 1.100 10000.000 0.000 0.824
94 282.00 1200.01 173 535 1.100 10000.000 0.000 0.824
95 285.00 1200.01 177 591 1.100 10000.000 0.000 0.824
96 288.00 1200.01 163 560 1.100 10000.000 0.000 0.824
97 291.00 1200.01 160 576 1.100 10000.000 0.000 0.824
98 294.00 1200.01 152 568 1.100 10000.000 0.000 0.824
99 297.00 1200.01 152 584 1.100 10000.000 0.000 0.824
100 300.00 1200.01 171 584 1.100 10000.000 0.000 0.824
101 303.00 1200.01 176 572 1.100 10000.000 0.000 0.824
102 306.00 1200.01 196 590 1.100 10000.000 0.000 0.824
103 309.00 1200.01 204 592 1.100 10000.000 0.000 0.824
104 312.00 1200.01 200 611 1.100 10000.000 0.000 0.824
105 315.00 1200.01 203 646 1.100 10000.000 0.000 0.824
106 318.00 1200.01 202 657 1.100 10000.000 0.000 0.824
107 321.00 1200.01 205 662 1.100 10000.000 0.000 0.824
108 324.00 1200.01 194 669 1.100 10000.000 0.000 0.824
109 327.00 1200.01 191 657 1.100 10000.000 0.000 0.824
110 330.00 1200.01 213 719 1.100 10000.000 0.000 0.824
111 333.00 1200.01 182 698 1.100 10000.000 0.000 0.824
112 336.00 1200.01 187 693 1.100 10000.000 0.000 0.824
113 339.00 1200.01 198 776 1.100 10000.000 0.000 0.824
114 342.00 1200.01 197 677 1.100 10000.000 0.000 0.824
115 345.00 1200.01 190 731 1.100 10000.000 0.000 0.824
116 348.00 1200.01 201 700 1.100 10000.000 0.000 0.824
117 351.00 1200.01 184 721 1.100 10000.000 0.000 0.824
118 354.00 1200.01 204 659 1.100 10000.000 0.000 0.824
119 357.00 1200.01 208 726 1.100 10000.000 0.000 0.824
120 360.00 1200.01 204 643 1.100 10000.000 0.000 0.824
121 363.00 1200.01 187 639 1.100 10000.000 0.000 0.824
122 366.00 1200.01 164 635 1.100 10000.000 0.000 0.824
123 369.00 1200.01 196 585 1.100 10000.000 0.000 0.824
124 372.00 1200.01 170 624 1.100 10000.000 0.000 0.824
125 375.00 1200.01 163 576 1.100 10000.000 0.000 0.824
126 378.00 1200.01 184 645 1.100 10000.000 0.000 0.824
127 381.00 1200.01 189 574 1.100 10000.000 0.000 0.824
128 384.00 1200.01 159 557 1.100 10000.000 0.000 0.824
129 387.00 1200.01 187 527 1.100 10000.000 0.000 0.824
130 390.00 1200.01 181 529 1.100 10000.000 0.000 0.824
131 393.00 1200.01 166 538 1.100 10000.000 0.000 0.824
132 396.00 1200.01 183 557 1.100 10000.000 0.000 0.824
133 399.00 1200.01 174 573 1.100 10000.000 0.000 0.824
134 402.00 1200.01 192 578 1.100 10000.000 0.000 0.824
