# BinNR microsec tot-time (s)  O-Beam AUX Ampl(V) f(Hz) phase(deg) chi(pos)
0 0.00 1500.05 73 194 1.000 10000.000 0.000 1.165
1 3.00 1500.05 142 325 1.000 10000.000 0.000 1.165
2 6.00 1500.05 146 339 1.000 10000.000 0.000 1.165
3 9.00 1500.05 156 301 1.000 10000.000 0.000 1.165
4 12.00 1500.05 151 329 1.000 10000.000 0.000 1.165
5 15.00 1500.05 138 277 1.000 10000.000 0.000 1.165
6 18.00 1500.05 133 288 1.000 10000.000 0.000 1.165
7 21.00 1500.05 135 273 1.000 10000.000 0.000 1.165
8 24.00 1500.05 132 265 1.000 10000.000 0.000 1.165
9 27.00 1500.05 119 252 1.000 10000.000 0.000 1.165
10 30.00 1500.05 150 244 1.000 10000.000 0.000 1.165
11 33.00 1500.05 125 227 1.000 10000.000 0.000 1.165
12 36.00 1500.05 133 290 1.000 10000.000 0.000 1.165
13 39.00 1500.05 128 226 1.000 10000.000 0.000 1.165
14 42.00 1500.05 117 251 1.000 10000.000 0.000 1.165
15 45.00 1500.05 98 217 1.000 10000.000 0.000 1.165
16 48.00 1500.05 133 213 1.000 10000.000 0.000 1.165
17 51.00 1500.05 109 221 1.000 10000.000 0.000 1.165
18 54.00 1500.05 126 241 1.000 10000.000 0.000 1.165
19 57.00 1500.05 126 256 1.000 10000.000 0.000 1.165
20 60.00 1500.05 140 209 1.000 10000.000 0.000 1.165
21 63.00 1500.05 138 255 1.000 10000.000 0.000 1.165
22 66.00 1500.05 152 299 1.000 10000.000 0.000 1.165
23 69.00 1500.05 122 252 1.000 10000.000 0.000 1.165
24 72.00 1500.05 139 269 1.000 10000.000 0.000 1.165
25 75.00 1500.05 127 316 1.000 10000.000 0.000 1.165
26 78.00 1500.05 143 312 1.000 10000.000 0.000 1.165
27 81.00 1500.05 157 315 1.000 10000.000 0.000 1.165
28 84.00 1500.05 158 347 1.000 10000.000 0.000 1.165
29 87.00 1500.05 139 349 1.000 10000.000 0.000 1.165
30 90.00 1500.05 182 337 1.000 10000.000 0.000 1.165
31 93.00 1500.05 162 373 1.000 10000.000 0.000 1.165
32 96.00 1500.05 150 340 1.000 10000.000 0.000 1.165
33 99.00 1500.05 142 360 1.000 10000.000 0.000 1.165
34 102.00 1500.05 178 344 1.000 10000.000 0.000 1.165
35 105.00 1500.05 151 341 1.000 10000.000 0.000 1.165
36 108.00 1500.05 133 310 1.000 10000.000 0.000 1.165
37 111.00 1500.05 137 336 1.000 10000.000 0.000 1.165
38 114.00 1500.05 147 278 1.000 10000.000 0.000 1.165
39 117.00 1500.05 154 303 1.000 10000.000 0.000 1.165
40 120.00 1500.05 127 312 1.000 10000.000 0.000 1.165
41 123.00 1500.05 111 265 1.000 10000.000 0.000 1.165
42 126.00 1500.05 129 242 1.000 10000.000 0.000 1.165
43 129.00 1500.05 128 273 1.000 10000.000 0.000 1.165
44 132.00 1500.05 125 265 1.000 10000.000 0.000 1.165
45 135.00 1500.05 120 228 1.000 10000.000 0.000 1.165
46 138.00 1500.05 143 241 1.000 10000.000 0.000 1.165
47 141.00 1500.05 128 266 1.000 10000.000 0.000 1.165
48 144.00 1500.05 95 234 1.000 10000.000 0.000 1.165
49 147.00 1500.05 146 228 1.000 10000.000 0.000 1.165
50 150.00 1500.05 134 242 1.000 10000.000 0.000 1.165
51 153.00 1500.05 113 231 1.000 10000.000 0.000 1.165
52 156.00 1500.05 125 239 1.000 10000.000 0.000 1.165
53 159.00 1500.05 110 255 1.000 10000.000 0.000 1.165
54 162.00 1500.05 127 210 1.000 10000.000 0.000 1.165
55 165.00 1500.05 141 242 1.000 10000.000 0.000 1.165
56 168.00 1500.05 155 275 1.000 10000.000 0.000 1.165
57 171.00 1500.05 142 263 1.000 10000.000 0.000 1.165
58 174.00 1500.05 146 290 1.000 10000.000 0.000 1.165
59 177.00 1500.05 133 310 1.000 10000.000 0.000 1.165
60 180.00 1500.05 152 306 1.000 10000.000 0.000 1.165
61 183.00 1500.05 163 326 1.000 10000.000 0.000 1.165
62 186.00 1500.05 140 328 1.000 10000.000 0.000 1.165
63 189.00 1500.05 161 311 1.000 10000.000 0.000 1.165
64 192.00 1500.05 173 321 1.000 10000.000 0.000 1.165
65 195.00 1500.05 145 349 1.000 10000.000 0.000 1.165
66 198.00 1500.05 160 344 1.000 10000.000 0.000 1.165
67 201.00 1500.05 155 320 1.000 10000.000 0.000 1.165
68 204.00 1500.05 164 329 1.000 10000.000 0.000 1.165
69 207.00 1500.05 149 338 1.000 10000.000 0.000 1.165
70 210.00 1500.05 146 306 1.000 10000.000 0.000 1.165
71 213.00 1500.05 132 291 1.000 10000.000 0.000 1.165
72 216.00 1500.05 145 309 1.000 10000.000 0.000 1.165
73 219.00 1500.05 146 331 1.000 10000.000 0.000 1.165
74 222.00 1500.05 142 258 1.000 10000.000 0.000 1.165
75 225.00 1500.05 129 280 1.000 10000.000 0.000 1.165
76 228.00 1500.05 131 256 1.000 10000.000 0.000 1.165
77 231.00 1500.05 125 216 1.000 10000.000 0.000 1.165
78 234.00 1500.05 122 278 1.000 10000.000 0.000 1.165
79 237.00 1500.05 127 275 1.000 10000.000 0.000 1.165
80 240.00 1500.05 124 238 1.000 10000.000 0.000 1.165
81 243.00 1500.05 124 238 1.000 10000.000 0.000 1.165
82 246.00 1500.05 123 240 1.000 10000.000 0.000 1.165
83 249.00 1500.05 136 202 1.000 10000.000 0.000 1.165
84 252.00 1500.05 117 225 1.000 10000.000 0.000 1.165
85 255.00 1500.05 121 261 1.000 10000.000 0.000 1.165
86 258.00 1500.05 144 262 1.000 10000.000 0.000 1.165
87 261.00 1500.05 118 273 1.000 10000.000 0.000 1.165
88 264.00 1500.05 146 251 1.000 10000.000 0.000 1.165
89 267.00 1500.05 139 273 1.000 10000.000 0.000 1.165
90 270.00 1500.05 138 263 1.000 10000.000 0.000 1.165
91 273.00 1500.05 147 287 1.000 10000.000 0.000 1.165
92 276.00 1500.05 146 298 1.000 10000.000 0.000 1.165
93 279.00 1500.05 144 299 1.000 10000.000 0.000 1.165
94 282.00 1500.05 168 327 1.000 10000.000 0.000 1.165
95 285.00 1500.05 170 339 1.000 10000.000 0.000 1.165
96 288.00 1500.05 143 371 1.000 10000.000 0.000 1.165
97 291.00 1500.05 147 341 1.000 10000.000 0.000 1.165
98 294.00 1500.05 187 370 1.000 10000.000 0.000 1.165
99 297.00 1500.05 160 310 1.000 10000.000 0.000 1.165
100 300.00 1500.05 140 361 1.000 10000.000 0.000 1.165
101 303.00 1500.05 151 319 1.000 10000.000 0.000 1.165
102 306.00 1500.05 159 359 1.000 10000.000 0.000 1.165
103 309.00 1500.05 139 323 1.000 10000.000 0.000 1.165
104 312.00 1500.05 160 335 1.000 10000.000 0.000 1.165
105 315.00 1500.05 156 326 1.000 10000.000 0.000 1.165
106 318.00 1500.05 169 281 1.000 10000.000 0.000 1.165
107 321.00 1500.05 123 277 1.000 10000.000 0.000 1.165
108 324.00 1500.05 115 300 1.000 10000.000 0.000 1.165
109 327.00 1500.05 131 278 1.000 10000.000 0.000 1.165
110 330.00 1500.05 111 258 1.000 10000.000 0.000 1.165
111 333.00 1500.05 126 285 1.000 10000.000 0.000 1.165
112 336.00 1500.05 134 263 1.000 10000.000 0.000 1.165
113 339.00 1500.05 145 224 1.000 10000.000 0.000 1.165
114 342.00 1500.05 125 201 1.000 10000.000 0.000 1.165
115 345.00 1500.05 104 249 1.000 10000.000 0.000 1.165
116 348.00 1500.05 137 225 1.000 10000.000 0.000 1.165
117 351.00 1500.05 142 248 1.000 10000.000 0.000 1.165
118 354.00 1500.05 133 258 1.000 10000.000 0.000 1.165
119 357.00 1500.05 130 257 1.000 10000.000 0.000 1.165
120 360.00 1500.05 128 209 1.000 10000.000 0.000 1.165
121 363.00 1500.05 125 287 1.000 10000.000 0.000 1.165
122 366.00 1500.05 144 270 1.000 10000.000 0.000 1.165
123 369.00 1500.05 138 252 1.000 10000.000 0.000 1.165
124 372.00 1500.05 138 289 1.000 10000.000 0.000 1.165
125 375.00 1500.05 151 322 1.000 10000.000 0.000 1.165
126 378.00 1500.05 151 347 1.000 10000.000 0.000 1.165
127 381.00 1500.05 146 302 1.000 10000.000 0.000 1.165
128 384.00 1500.05 147 330 1.000 10000.000 0.000 1.165
129 387.00 1500.05 146 311 1.000 10000.000 0.000 1.165
130 390.00 1500.05 159 360 1.000 10000.000 0.000 1.165
131 393.00 1500.05 144 340 1.000 10000.000 0.000 1.165
132 396.00 1500.05 162 371 1.000 10000.000 0.000 1.165
133 399.00 1500.05 145 329 1.000 10000.000 0.000 1.165
134 402.00 1500.05 133 327 1.000 10000.000 0.000 1.165
