# BinNR microsec tot-time (s)  O-Beam AUX Ampl(V) f(Hz) phase(deg) chi(pos)
0 0.00 1500.02 115 280 1.000 10000.000 0.000 0.659
1 3.00 1500.02 221 644 1.000 10000.000 0.000 0.659
2 6.00 1500.02 201 579 1.000 10000.000 0.000 0.659
3 9.00 1500.02 219 625 1.000 10000.000 0.000 0.659
4 12.00 1500.02 238 645 1.000 10000.000 0.000 0.659
5 15.00 1500.02 188 611 1.000 10000.000 0.000 0.659
6 18.00 1500.02 213 585 1.000 10000.000 0.000 0.659
7 21.00 1500.02 186 559 1.000 10000.000 0.000 0.659
8 24.00 1500.02 205 599 1.000 10000.000 0.000 0.659
9 27.00 1500.02 175 505 1.000 10000.000 0.000 0.659
10 30.00 1500.02 187 548 1.000 10000.000 0.000 0.659
11 33.00 1500.02 215 513 1.000 10000.000 0.000 0.659
12 36.00 1500.02 208 573 1.000 10000.000 0.000 0.659
13 39.00 1500.02 209 559 1.000 10000.000 0.000 0.659
14 42.00 1500.02 200 543 1.000 10000.000 0.000 0.659
15 45.00 1500.02 197 536 1.000 10000.000 0.000 0.659
16 48.00 1500.02 224 588 1.000 10000.000 0.000 0.659
17 51.00 1500.02 222 561 1.000 10000.000 0.000 0.659
18 54.00 1500.02 215 559 1.000 10000.000 0.000 0.659
19 57.00 1500.02 190 516 1.000 10000.000 0.000 0.659
20 60.00 1500.02 217 568 1.000 10000.000 0.000 0.659
21 63.00 1500.02 222 573 1.000 10000.000 0.000 0.659
22 66.00 1500.02 195 558 1.000 10000.000 0.000 0.659
23 69.00 1500.02 213 562 1.000 10000.000 0.000 0.659
24 72.00 1500.02 218 597 1.000 10000.000 0.000 0.659
25 75.00 1500.02 193 627 1.000 10000.000 0.000 0.659
26 78.00 1500.02 210 584 1.000 10000.000 0.000 0.659
27 81.00 1500.02 234 610 1.000 10000.000 0.000 0.659
28 84.00 1500.02 240 612 1.000 10000.000 0.000 0.659
29 87.00 1500.02 231 638 1.000 10000.000 0.000 0.659
30 90.00 1500.02 239 599 1.000 10000.000 0.000 0.659
31 93.00 1500.02 202 581 1.000 10000.000 0.000 0.659
32 96.00 1500.02 203 597 1.000 10000.000 0.000 0.659
33 99.00 1500.02 169 588 1.000 10000.000 0.000 0.659
34 102.00 1500.02 198 656 1.000 10000.000 0.000 0.659
35 105.00 1500.02 212 603 1.000 10000.000 0.000 0.659
36 108.00 1500.02 237 645 1.000 10000.000 0.000 0.659
37 111.00 1500.02 208 592 1.000 10000.000 0.000 0.659
38 114.00 1500.02 208 589 1.000 10000.000 0.000 0.659
39 117.00 1500.02 226 618 1.000 10000.000 0.000 0.659
40 120.00 1500.02 205 592 1.000 10000.000 0.000 0.659
41 123.00 1500.02 201 572 1.000 10000.000 0.000 0.659
42 126.00 1500.02 218 573 1.000 10000.000 0.000 0.659
43 129.00 1500.02 190 525 1.000 10000.000 0.000 0.659
44 132.00 1500.02 194 538 1.000 10000.000 0.000 0.659
45 135.00 1500.02 192 588 1.000 10000.000 0.000 0.659
46 138.00 1500.02 193 519 1.000 10000.000 0.000 0.659
47 141.00 1500.02 186 533 1.000 10000.000 0.000 0.659
48 144.00 1500.02 192 555 1.000 10000.000 0.000 0.659
49 147.00 1500.02 195 518 1.000 10000.000 0.000 0.659
50 150.00 1500.02 199 499 1.000 10000.000 0.000 0.659
51 153.00 1500.02 206 570 1.000 10000.000 0.000 0.659
52 156.00 1500.02 192 555 1.000 10000.000 0.000 0.659
53 159.00 1500.02 200 561 1.000 10000.000 0.000 0.659
54 162.00 1500.02 194 525 1.000 10000.000 0.000 0.659
55 165.00 1500.02 242 567 1.000 10000.000 0.000 0.659
56 168.00 1500.02 210 545 1.000 10000.000 0.000 0.659
57 171.00 1500.02 196 594 1.000 10000.000 0.000 0.659
58 174.00 1500.02 208 615 1.000 10000.000 0.000 0.659
59 177.00 1500.02 200 582 1.000 10000.000 0.000 0.659
60 180.00 1500.02 220 574 1.000 10000.000 0.000 0.659
61 183.00 1500.02 216 598 1.000 10000.000 0.000 0.659
62 186.00 1500.02 246 640 1.000 10000.000 0.000 0.659
63 189.00 1500.02 198 575 1.000 10000.000 0.000 0.659
64 192.00 1500.02 197 636 1.000 10000.000 0.000 0.659
65 195.00 1500.02 217 626 1.000 10000.000 0.000 0.659
66 198.00 1500.02 233 628 1.000 10000.000 0.000 0.659
67 201.00 1500.02 212 610 1.000 10000.000 0.000 0.659
68 204.00 1500.02 225 586 1.000 10000.000 0.000 0.659
69 207.00 1500.02 199 621 1.000 10000.000 0.000 0.659
70 210.00 1500.02 216 581 1.000 10000.000 0.000 0.659
71 213.00 1500.02 199 616 1.000 10000.000 0.000 0.659
72 216.00 1500.02 213 605 1.000 10000.000 0.000 0.659
73 219.00 1500.02 196 572 1.000 10000.000 0.000 0.659
74 222.00 1500.02 201 595 1.000 10000.000 0.000 0.659
75 225.00 1500.02 235 552 1.000 10000.000 0.000 0.659
76 228.00 1500.02 221 519 1.000 10000.000 0.000 0.659
77 231.00 1500.02 199 530 1.000 10000.000 0.000 0.659
78 234.00 1500.02 228 538 1.000 10000.000 0.000 0.659
79 237.00 1500.02 217 532 1.000 10000.000 0.000 0.659
80 240.00 1500.02 160 548 1.000 10000.000 0.000 0.659
81 243.00 1500.02 193 508 1.000 10000.000 0.000 0.659
82 246.00 1500.02 206 505 1.000 10000.000 0.000 0.659
83 249.00 1500.02 185 483 1.000 10000.000 0.000 0.659
84 252.00 1500.02 186 573 1.000 10000.000 0.000 0.659
85 255.00 1500.02 222 522 1.000 10000.000 0.000 0.659
86 258.00 1500.02 194 547 1.000 10000.000 0.000 0.659
87 261.00 1500.02 206 574 1.000 10000.000 0.000 0.659
88 264.00 1500.02 232 578 1.000 10000.000 0.000 0.659
89 267.00 1500.02 216 578 1.000 10000.000 0.000 0.659
90 270.00 1500.02 214 579 1.000 10000.000 0.000 0.659
91 273.00 1500.02 218 571 1.000 10000.000 0.000 0.659
92 276.00 1500.02 206 597 1.000 10000.000 0.000 0.659
93 279.00 1500.02 244 587 1.000 10000.000 0.000 0.659
94 282.00 1500.02 215 602 1.000 10000.000 0.000 0.659
95 285.00 1500.02 201 650 1.000 10000.000 0.000 0.659
96 288.00 1500.02 232 608 1.000 10000.000 0.000 0.659
97 291.00 1500.02 224 615 1.000 10000.000 0.000 0.659
98 294.00 1500.02 213 607 1.000 10000.000 0.000 0.659
99 297.00 1500.02 217 556 1.000 10000.000 0.000 0.659
100 300.00 1500.02 236 601 1.000 10000.000 0.000 0.659
101 303.00 1500.02 217 611 1.000 10000.000 0.000 0.659
102 306.00 1500.02 232 590 1.000 10000.000 0.000 0.659
103 309.00 1500.02 203 617 1.000 10000.000 0.000 0.659
104 312.00 1500.02 225 615 1.000 10000.000 0.000 0.659
105 315.00 1500.02 224 554 1.000 10000.000 0.000 0.659
106 318.00 1500.02 209 598 1.000 10000.000 0.000 0.659
107 321.00 1500.02 213 582 1.000 10000.000 0.000 0.659
108 324.00 1500.02 188 558 1.000 10000.000 0.000 0.659
109 327.00 1500.02 201 591 1.000 10000.000 0.000 0.659
110 330.00 1500.02 205 533 1.000 10000.000 0.000 0.659
111 333.00 1500.02 193 525 1.000 10000.000 0.000 0.659
112 336.00 1500.02 204 562 1.000 10000.000 0.000 0.659
113 339.00 1500.02 189 518 1.000 10000.000 0.000 0.659
114 342.00 1500.02 201 571 1.000 10000.000 0.000 0.659
115 345.00 1500.02 213 542 1.000 10000.000 0.000 0.659
116 348.00 1500.02 199 521 1.000 10000.000 0.000 0.659
117 351.00 1500.02 225 537 1.000 10000.000 0.000 0.659
118 354.00 1500.02 188 569 1.000 10000.000 0.000 0.659
119 357.00 1500.02 205 512 1.000 10000.000 0.000 0.659
120 360.00 1500.02 205 589 1.000 10000.000 0.000 0.659
121 363.00 1500.02 217 557 1.000 10000.000 0.000 0.659
122 366.00 1500.02 207 570 1.000 10000.000 0.000 0.659
123 369.00 1500.02 215 559 1.000 10000.000 0.000 0.659
124 372.00 1500.02 218 588 1.000 10000.000 0.000 0.659
125 375.00 1500.02 249 579 1.000 10000.000 0.000 0.659
126 378.00 1500.02 223 602 1.000 10000.000 0.000 0.659
127 381.00 1500.02 232 626 1.000 10000.000 0.000 0.659
128 384.00 1500.02 217 604 1.000 10000.000 0.000 0.659
129 387.00 1500.02 213 600 1.000 10000.000 0.000 0.659
130 390.00 1500.02 233 592 1.000 10000.000 0.000 0.659
131 393.00 1500.02 178 622 1.000 10000.000 0.000 0.659
132 396.00 1500.02 211 577 1.000 10000.000 0.000 0.659
133 399.00 1500.02 223 658 1.000 10000.000 0.000 0.659
134 402.00 1500.02 236 664 1.000 10000.000 0.000 0.659
