# BinNR microsec tot-time (s)  O-Beam AUX Ampl(V) f(Hz) phase(deg) chi(pos)
0 0.00 1500.02 89 231 1.000 10000.000 0.000 0.000
1 3.00 1500.02 153 497 1.000 10000.000 0.000 0.000
2 6.00 1500.02 173 468 1.000 10000.000 0.000 0.000
3 9.00 1500.02 190 477 1.000 10000.000 0.000 0.000
4 12.00 1500.02 183 495 1.000 10000.000 0.000 0.000
5 15.00 1500.02 194 474 1.000 10000.000 0.000 0.000
6 18.00 1500.02 194 541 1.000 10000.000 0.000 0.000
7 21.00 1500.02 168 509 1.000 10000.000 0.000 0.000
8 24.00 1500.02 222 534 1.000 10000.000 0.000 0.000
9 27.00 1500.02 191 607 1.000 10000.000 0.000 0.000
10 30.00 1500.02 207 610 1.000 10000.000 0.000 0.000
11 33.00 1500.02 214 568 1.000 10000.000 0.000 0.000
12 36.00 1500.02 205 559 1.000 10000.000 0.000 0.000
13 39.00 1500.02 208 589 1.000 10000.000 0.000 0.000
14 42.00 1500.02 203 571 1.000 10000.000 0.000 0.000
15 45.00 1500.02 210 570 1.000 10000.000 0.000 0.000
16 48.00 1500.02 222 576 1.000 10000.000 0.000 0.000
17 51.00 1500.02 190 548 1.000 10000.000 0.000 0.000
18 54.00 1500.02 206 591 1.000 10000.000 0.000 0.000
19 57.00 1500.02 203 621 1.000 10000.000 0.000 0.000
20 60.00 1500.02 189 572 1.000 10000.000 0.000 0.000
21 63.00 1500.02 182 562 1.000 10000.000 0.000 0.000
22 66.00 1500.02 185 528 1.000 10000.000 0.000 0.000
23 69.00 1500.02 175 514 1.000 10000.000 0.000 0.000
24 72.00 1500.02 194 522 1.000 10000.000 0.000 0.000
25 75.00 1500.02 182 500 1.000 10000.000 0.000 0.000
26 78.00 1500.02 188 479 1.000 10000.000 0.000 0.000
27 81.00 1500.02 150 515 1.000 10000.000 0.000 0.000
28 84.00 1500.02 155 487 1.000 10000.000 0.000 0.000
29 87.00 1500.02 167 459 1.000 10000.000 0.000 0.000
30 90.00 1500.02 170 455 1.000 10000.000 0.000 0.000
31 93.00 1500.02 154 415 1.000 10000.000 0.000 0.000
32 96.00 1500.02 170 476 1.000 10000.000 0.000 0.000
33 99.00 1500.02 182 461 1.000 10000.000 0.000 0.000
34 102.00 1500.02 190 451 1.000 10000.000 0.000 0.000
35 105.00 1500.02 174 425 1.000 10000.000 0.000 0.000
36 108.00 1500.02 169 457 1.000 10000.000 0.000 0.000
37 111.00 1500.02 187 486 1.000 10000.000 0.000 0.000
38 114.00 1500.02 184 515 1.000 10000.000 0.000 0.000
39 117.00 1500.02 193 527 1.000 10000.000 0.000 0.000
40 120.00 1500.02 179 496 1.000 10000.000 0.000 0.000
41 123.00 1500.02 193 534 1.000 10000.000 0.000 0.000
42 126.00 1500.02 208 526 1.000 10000.000 0.000 0.000
43 129.00 1500.02 209 524 1.000 10000.000 0.000 0.000
44 132.00 1500.02 224 553 1.000 10000.000 0.000 0.000
45 135.00 1500.02 193 584 1.000 10000.000 0.000 0.000
46 138.00 1500.02 204 577 1.000 10000.000 0.000 0.000
47 141.00 1500.02 204 571 1.000 10000.000 0.000 0.000
48 144.00 1500.02 222 575 1.000 10000.000 0.000 0.000
49 147.00 1500.02 178 581 1.000 10000.000 0.000 0.000
50 150.00 1500.02 202 609 1.000 10000.000 0.000 0.000
51 153.00 1500.02 217 523 1.000 10000.000 0.000 0.000
52 156.00 1500.02 193 598 1.000 10000.000 0.000 0.000
53 159.00 1500.02 181 572 1.000 10000.000 0.000 0.000
54 162.00 1500.02 190 597 1.000 10000.000 0.000 0.000
55 165.00 1500.02 180 584 1.000 10000.000 0.000 0.000
56 168.00 1500.02 176 524 1.000 10000.000 0.000 0.000
57 171.00 1500.02 181 563 1.000 10000.000 0.000 0.000
58 174.00 1500.02 191 494 1.000 10000.000 0.000 0.000
59 177.00 1500.02 185 490 1.000 10000.000 0.000 0.000
60 180.00 1500.02 165 499 1.000 10000.000 0.000 0.000
61 183.00 1500.02 187 459 1.000 10000.000 0.000 0.000
62 186.00 1500.02 130 440 1.000 10000.000 0.000 0.000
63 189.00 1500.02 144 468 1.000 10000.000 0.000 0.000
64 192.00 1500.02 167 506 1.000 10000.000 0.000 0.000
65 195.00 1500.02 180 430 1.000 10000.000 0.000 0.000
66 198.00 1500.02 169 445 1.000 10000.000 0.000 0.000
67 201.00 1500.02 169 402 1.000 10000.000 0.000 0.000
68 204.00 1500.02 168 468 1.000 10000.000 0.000 0.000
69 207.00 1500.02 161 465 1.000 10000.000 0.000 0.000
70 210.00 1500.02 186 477 1.000 10000.000 0.000 0.000
71 213.00 1500.02 181 483 1.000 10000.000 0.000 0.000
72 216.00 1500.02 174 442 1.000 10000.000 0.000 0.000
73 219.00 1500.02 169 498 1.000 10000.000 0.000 0.000
74 222.00 1500.02 214 515 1.000 10000.000 0.000 0.000
75 225.00 1500.02 190 508 1.000 10000.000 0.000 0.000
76 228.00 1500.02 181 582 1.000 10000.000 0.000 0.000
77 231.00 1500.02 168 533 1.000 10000.000 0.000 0.000
78 234.00 1500.02 207 573 1.000 10000.000 0.000 0.000
79 237.00 1500.02 191 551 1.000 10000.000 0.000 0.000
80 240.00 1500.02 210 595 1.000 10000.000 0.000 0.000
81 243.00 1500.02 203 563 1.000 10000.000 0.000 0.000
82 246.00 1500.02 203 613 1.000 10000.000 0.000 0.000
83 249.00 1500.02 210 561 1.000 10000.000 0.000 0.000
84 252.00 1500.02 205 546 1.000 10000.000 0.000 0.000
85 255.00 1500.02 212 578 1.000 10000.000 0.000 0.000
86 258.00 1500.02 182 605 1.000 10000.000 0.000 0.000
87 261.00 1500.02 210 546 1.000 10000.000 0.000 0.000
88 264.00 1500.02 204 591 1.000 10000.000 0.000 0.000
89 267.00 1500.02 203 553 1.000 10000.000 0.000 0.000
90 270.00 1500.02 195 553 1.000 10000.000 0.000 0.000
91 273.00 1500.02 173 495 1.000 10000.000 0.000 0.000
92 276.00 1500.02 169 482 1.000 10000.000 0.000 0.000
93 279.00 1500.02 181 501 1.000 10000.000 0.000 0.000
94 282.00 1500.02 181 525 1.000 10000.000 0.000 0.000
95 285.00 1500.02 172 460 1.000 10000.000 0.000 0.000
96 288.00 1500.02 174 448 1.000 10000.000 0.000 0.000
97 291.00 1500.02 152 427 1.000 10000.000 0.000 0.000
98 294.00 1500.02 175 472 1.000 10000.000 0.000 0.000
99 297.00 1500.02 157 434 1.000 10000.000 0.000 0.000
100 300.00 1500.02 166 410 1.000 10000.000 0.000 0.000
101 303.00 1500.02 195 461 1.000 10000.000 0.000 0.000
102 306.00 1500.02 183 464 1.000 10000.000 0.000 0.000
103 309.00 1500.02 169 462 1.000 10000.000 0.000 0.000
104 312.00 1500.02 159 456 1.000 10000.000 0.000 0.000
105 315.00 1500.02 161 457 1.000 10000.000 0.000 0.000
106 318.00 1500.02 192 533 1.000 10000.000 0.000 0.000
107 321.00 1500.02 192 534 1.000 10000.000 0.000 0.000
108 324.00 1500.02 189 571 1.000 10000.000 0.000 0.000
109 327.00 1500.02 166 542 1.000 10000.000 0.000 0.000
110 330.00 1500.02 204 580 1.000 10000.000 0.000 0.000
111 333.00 1500.02 192 526 1.000 10000.000 0.000 0.000
112 336.00 1500.02 177 549 1.000 10000.000 0.000 0.000
113 339.00 1500.02 184 590 1.000 10000.000 0.000 0.000
114 342.00 1500.02 215 559 1.000 10000.000 0.000 0.000
115 345.00 1500.02 188 555 1.000 10000.000 0.000 0.000
116 348.00 1500.02 215 597 1.000 10000.000 0.000 0.000
117 351.00 1500.02 198 561 1.000 10000.000 0.000 0.000
118 354.00 1500.02 188 539 1.000 10000.000 0.000 0.000
119 357.00 1500.02 218 537 1.000 10000.000 0.000 0.000
120 360.00 1500.02 189 593 1.000 10000.000 0.000 0.000
121 363.00 1500.02 194 611 1.000 10000.000 0.000 0.000
122 366.00 1500.02 162 569 1.000 10000.000 0.000 0.000
123 369.00 1500.02 182 503 1.000 10000.000 0.000 0.000
124 372.00 1500.02 167 541 1.000 10000.000 0.000 0.000
125 375.00 1500.02 162 442 1.000 10000.000 0.000 0.000
126 378.00 1500.02 189 496 1.000 10000.000 0.000 0.000
127 381.00 1500.02 181 476 1.000 10000.000 0.000 0.000
128 384.00 1500.02 187 441 1.000 10000.000 0.000 0.000
129 387.00 1500.02 187 447 1.000 10000.000 0.000 0.000
130 390.00 1500.02 190 449 1.000 10000.000 0.000 0.000
131 393.00 1500.02 172 439 1.000 10000.000 0.000 0.000
132 396.00 1500.02 155 454 1.000 10000.000 0.000 0.000
133 399.00 1500.02 171 483 1.000 10000.000 0.000 0.000
134 402.00 1500.02 160 454 1.000 10000.000 0.000 0.000
