# BinNR microsec tot-time (s)  O-Beam AUX Ampl(V) f(Hz) phase(deg) chi(pos)
0 0.00 1500.04 115 315 1.000 10000.000 0.000 0.835
1 3.00 1500.04 195 561 1.000 10000.000 0.000 0.835
2 6.00 1500.04 214 582 1.000 10000.000 0.000 0.835
3 9.00 1500.04 197 533 1.000 10000.000 0.000 0.835
4 12.00 1500.04 205 518 1.000 10000.000 0.000 0.835
5 15.00 1500.04 185 525 1.000 10000.000 0.000 0.835
6 18.00 1500.04 226 526 1.000 10000.000 0.000 0.835
7 21.00 1500.04 200 486 1.000 10000.000 0.000 0.835
8 24.00 1500.04 186 491 1.000 10000.000 0.000 0.835
9 27.00 1500.04 209 488 1.000 10000.000 0.000 0.835
10 30.00 1500.04 184 473 1.000 10000.000 0.000 0.835
11 33.00 1500.04 166 471 1.000 10000.000 0.000 0.835
12 36.00 1500.04 192 460 1.000 10000.000 0.000 0.835
13 39.00 1500.04 178 414 1.000 10000.000 0.000 0.835
14 42.00 1500.04 219 453 1.000 10000.000 0.000 0.835
15 45.00 1500.04 192 479 1.000 10000.000 0.000 0.835
16 48.00 1500.04 180 521 1.000 10000.000 0.000 0.835
17 51.00 1500.04 180 424 1.000 10000.000 0.000 0.835
18 54.00 1500.04 201 450 1.000 10000.000 0.000 0.835
19 57.00 1500.04 172 497 1.000 10000.000 0.000 0.835
20 60.00 1500.04 208 447 1.000 10000.000 0.000 0.835
21 63.00 1500.04 189 488 1.000 10000.000 0.000 0.835
22 66.00 1500.04 219 543 1.000 10000.000 0.000 0.835
23 69.00 1500.04 223 510 1.000 10000.000 0.000 0.835
24 72.00 1500.04 227 535 1.000 10000.000 0.000 0.835
25 75.00 1500.04 232 530 1.000 10000.000 0.000 0.835
26 78.00 1500.04 238 474 1.000 10000.000 0.000 0.835
27 81.00 1500.04 219 521 1.000 10000.000 0.000 0.835
28 84.00 1500.04 259 549 1.000 10000.000 0.000 0.835
29 87.00 1500.04 228 584 1.000 10000.000 0.000 0.835
30 90.00 1500.04 219 562 1.000 10000.000 0.000 0.835
31 93.00 1500.04 191 548 1.000 10000.000 0.000 0.835
32 96.00 1500.04 199 561 1.000 10000.000 0.000 0.835
33 99.00 1500.04 218 591 1.000 10000.000 0.000 0.835
34 102.00 1500.04 231 567 1.000 10000.000 0.000 0.835
35 105.00 1500.04 200 582 1.000 10000.000 0.000 0.835
36 108.00 1500.04 236 561 1.000 10000.000 0.000 0.835
37 111.00 1500.04 195 594 1.000 10000.000 0.000 0.835
38 114.00 1500.04 206 533 1.000 10000.000 0.000 0.835
39 117.00 1500.04 175 528 1.000 10000.000 0.000 0.835
40 120.00 1500.04 204 537 1.000 10000.000 0.000 0.835
41 123.00 1500.04 214 464 1.000 10000.000 0.000 0.835
42 126.00 1500.04 211 523 1.000 10000.000 0.000 0.835
43 129.00 1500.04 195 512 1.000 10000.000 0.000 0.835
44 132.00 1500.04 178 442 1.000 10000.000 0.000 0.835
45 135.00 1500.04 192 430 1.000 10000.000 0.000 0.835
46 138.00 1500.04 185 484 1.000 10000.000 0.000 0.835
47 141.00 1500.04 205 445 1.000 10000.000 0.000 0.835
48 144.00 1500.04 180 465 1.000 10000.000 0.000 0.835
49 147.00 1500.04 181 426 1.000 10000.000 0.000 0.835
50 150.00 1500.04 201 421 1.000 10000.000 0.000 0.835
51 153.00 1500.04 167 439 1.000 10000.000 0.000 0.835
52 156.00 1500.04 178 432 1.000 10000.000 0.000 0.835
53 159.00 1500.04 181 469 1.000 10000.000 0.000 0.835
54 162.00 1500.04 218 459 1.000 10000.000 0.000 0.835
55 165.00 1500.04 200 461 1.000 10000.000 0.000 0.835
56 168.00 1500.04 184 473 1.000 10000.000 0.000 0.835
57 171.00 1500.04 210 495 1.000 10000.000 0.000 0.835
58 174.00 1500.04 222 527 1.000 10000.000 0.000 0.835
59 177.00 1500.04 213 547 1.000 10000.000 0.000 0.835
60 180.00 1500.04 226 549 1.000 10000.000 0.000 0.835
61 183.00 1500.04 238 557 1.000 10000.000 0.000 0.835
62 186.00 1500.04 218 584 1.000 10000.000 0.000 0.835
63 189.00 1500.04 200 563 1.000 10000.000 0.000 0.835
64 192.00 1500.04 207 602 1.000 10000.000 0.000 0.835
65 195.00 1500.04 206 531 1.000 10000.000 0.000 0.835
66 198.00 1500.04 210 633 1.000 10000.000 0.000 0.835
67 201.00 1500.04 226 561 1.000 10000.000 0.000 0.835
68 204.00 1500.04 220 605 1.000 10000.000 0.000 0.835
69 207.00 1500.04 212 539 1.000 10000.000 0.000 0.835
70 210.00 1500.04 219 610 1.000 10000.000 0.000 0.835
71 213.00 1500.04 193 550 1.000 10000.000 0.000 0.835
72 216.00 1500.04 180 569 1.000 10000.000 0.000 0.835
73 219.00 1500.04 224 540 1.000 10000.000 0.000 0.835
74 222.00 1500.04 208 517 1.000 10000.000 0.000 0.835
75 225.00 1500.04 201 476 1.000 10000.000 0.000 0.835
76 228.00 1500.04 196 485 1.000 10000.000 0.000 0.835
77 231.00 1500.04 187 473 1.000 10000.000 0.000 0.835
78 234.00 1500.04 158 465 1.000 10000.000 0.000 0.835
79 237.00 1500.04 176 463 1.000 10000.000 0.000 0.835
80 240.00 1500.04 193 456 1.000 10000.000 0.000 0.835
81 243.00 1500.04 192 423 1.000 10000.000 0.000 0.835
82 246.00 1500.04 188 395 1.000 10000.000 0.000 0.835
83 249.00 1500.04 194 438 1.000 10000.000 0.000 0.835
84 252.00 1500.04 190 399 1.000 10000.000 0.000 0.835
85 255.00 1500.04 176 491 1.000 10000.000 0.000 0.835
86 258.00 1500.04 186 443 1.000 10000.000 0.000 0.835
87 261.00 1500.04 196 467 1.000 10000.000 0.000 0.835
88 264.00 1500.04 196 438 1.000 10000.000 0.000 0.835
89 267.00 1500.04 205 468 1.000 10000.000 0.000 0.835
90 270.00 1500.04 225 473 1.000 10000.000 0.000 0.835
91 273.00 1500.04 208 513 1.000 10000.000 0.000 0.835
92 276.00 1500.04 189 564 1.000 10000.000 0.000 0.835
93 279.00 1500.04 219 575 1.000 10000.000 0.000 0.835
94 282.00 1500.04 191 596 1.000 10000.000 0.000 0.835
95 285.00 1500.04 228 554 1.000 10000.000 0.000 0.835
96 288.00 1500.04 213 563 1.000 10000.000 0.000 0.835
97 291.00 1500.04 201 602 1.000 10000.000 0.000 0.835
98 294.00 1500.04 244 599 1.000 10000.000 0.000 0.835
99 297.00 1500.04 193 596 1.000 10000.000 0.000 0.835
100 300.00 1500.04 202 567 1.000 10000.000 0.000 0.835
101 303.00 1500.04 222 641 1.000 10000.000 0.000 0.835
102 306.00 1500.04 199 586 1.000 10000.000 0.000 0.835
103 309.00 1500.04 217 559 1.000 10000.000 0.000 0.835
104 312.00 1500.04 223 572 1.000 10000.000 0.000 0.835
105 315.00 1500.04 206 531 1.000 10000.000 0.000 0.835
106 318.00 1500.04 215 539 1.000 10000.000 0.000 0.835
107 321.00 1500.04 200 473 1.000 10000.000 0.000 0.835
108 324.00 1500.04 195 498 1.000 10000.000 0.000 0.835
109 327.00 1500.04 192 489 1.000 10000.000 0.000 0.835
110 330.00 1500.04 174 479 1.000 10000.000 0.000 0.835
111 333.00 1500.04 175 468 1.000 10000.000 0.000 0.835
112 336.00 1500.04 200 426 1.000 10000.000 0.000 0.835
113 339.00 1500.04 194 418 1.000 10000.000 0.000 0.835
114 342.00 1500.04 173 402 1.000 10000.000 0.000 0.835
115 345.00 1500.04 181 471 1.000 10000.000 0.000 0.835
116 348.00 1500.04 184 448 1.000 10000.000 0.000 0.835
117 351.00 1500.04 176 424 1.000 10000.000 0.000 0.835
118 354.00 1500.04 217 445 1.000 10000.000 0.000 0.835
119 357.00 1500.04 182 431 1.000 10000.000 0.000 0.835
120 360.00 1500.04 212 455 1.000 10000.000 0.000 0.835
121 363.00 1500.04 192 489 1.000 10000.000 0.000 0.835
122 366.00 1500.04 190 493 1.000 10000.000 0.000 0.835
123 369.00 1500.04 186 480 1.000 10000.000 0.000 0.835
124 372.00 1500.04 193 520 1.000 10000.000 0.000 0.835
125 375.00 1500.04 235 514 1.000 10000.000 0.000 0.835
126 378.00 1500.04 225 561 1.000 10000.000 0.000 0.835
127 381.00 1500.04 226 574 1.000 10000.000 0.000 0.835
128 384.00 1500.04 208 606 1.000 10000.000 0.000 0.835
129 387.00 1500.04 192 529 1.000 10000.000 0.000 0.835
130 390.00 1500.04 210 506 1.000 10000.000 0.000 0.835
131 393.00 1500.04 208 563 1.000 10000.000 0.000 0.835
132 396.00 1500.04 239 579 1.000 10000.000 0.000 0.835
133 399.00 1500.04 226 566 1.000 10000.000 0.000 0.835
134 402.00 1500.04 222 617 1.000 10000.000 0.000 0.835
