# BinNR microsec tot-time (s)  O-Beam AUX Ampl(V) f(Hz) phase(deg) chi(pos)
0 0.00 1200.01 75 80 2.000 10000.000 0.000 0.703
1 3.00 1200.01 155 236 2.000 10000.000 0.000 0.703
2 6.00 1200.01 163 233 2.000 10000.000 0.000 0.703
3 9.00 1200.01 170 254 2.000 10000.000 0.000 0.703
4 12.00 1200.01 178 295 2.000 10000.000 0.000 0.703
5 15.00 1200.01 198 316 2.000 10000.000 0.000 0.703
6 18.00 1200.01 167 283 2.000 10000.000 0.000 0.703
7 21.00 1200.01 183 319 2.000 10000.000 0.000 0.703
8 24.00 1200.01 171 289 2.000 10000.000 0.000 0.703
9 27.00 1200.01 183 263 2.000 10000.000 0.000 0.703
10 30.00 1200.01 162 236 2.000 10000.000 0.000 0.703
11 33.00 1200.01 176 207 2.000 10000.000 0.000 0.703
12 36.00 1200.01 144 172 2.000 10000.000 0.000 0.703
13 39.00 1200.01 145 156 2.000 10000.000 0.000 0.703
14 42.00 1200.01 132 139 2.000 10000.000 0.000 0.703
15 45.00 1200.01 142 137 2.000 10000.000 0.000 0.703
16 48.00 1200.01 124 133 2.000 10000.000 0.000 0.703
17 51.00 1200.01 119 149 2.000 10000.000 0.000 0.703
18 54.00 1200.01 148 153 2.000 10000.000 0.000 0.703
19 57.00 1200.01 118 174 2.000 10000.000 0.000 0.703
20 60.00 1200.01 118 195 2.000 10000.000 0.000 0.703
21 63.00 1200.01 118 192 2.000 10000.000 0.000 0.703
22 66.00 1200.01 101 212 2.000 10000.000 0.000 0.703
23 69.00 1200.01 122 199 2.000 10000.000 0.000 0.703
24 72.00 1200.01 117 203 2.000 10000.000 0.000 0.703
25 75.00 1200.01 107 199 2.000 10000.000 0.000 0.703
26 78.00 1200.01 126 188 2.000 10000.000 0.000 0.703
27 81.00 1200.01 136 167 2.000 10000.000 0.000 0.703
28 84.00 1200.01 144 156 2.000 10000.000 0.000 0.703
29 87.00 1200.01 126 124 2.000 10000.000 0.000 0.703
30 90.00 1200.01 126 142 2.000 10000.000 0.000 0.703
31 93.00 1200.01 131 158 2.000 10000.000 0.000 0.703
32 96.00 1200.01 139 159 2.000 10000.000 0.000 0.703
33 99.00 1200.01 152 198 2.000 10000.000 0.000 0.703
34 102.00 1200.01 151 202 2.000 10000.000 0.000 0.703
35 105.00 1200.01 153 229 2.000 10000.000 0.000 0.703
36 108.00 1200.01 168 265 2.000 10000.000 0.000 0.703
37 111.00 1200.01 191 308 2.000 10000.000 0.000 0.703
38 114.00 1200.01 182 331 2.000 10000.000 0.000 0.703
39 117.00 1200.01 179 302 2.000 10000.000 0.000 0.703
40 120.00 1200.01 178 296 2.000 10000.000 0.000 0.703
41 123.00 1200.01 170 286 2.000 10000.000 0.000 0.703
42 126.00 1200.01 169 290 2.000 10000.000 0.000 0.703
43 129.00 1200.01 172 278 2.000 10000.000 0.000 0.703
44 132.00 1200.01 179 223 2.000 10000.000 0.000 0.703
45 135.00 1200.01 152 175 2.000 10000.000 0.000 0.703
46 138.00 1200.01 154 171 2.000 10000.000 0.000 0.703
47 141.00 1200.01 135 154 2.000 10000.000 0.000 0.703
48 144.00 1200.01 141 122 2.000 10000.000 0.000 0.703
49 147.00 1200.01 126 130 2.000 10000.000 0.000 0.703
50 150.00 1200.01 131 133 2.000 10000.000 0.000 0.703
51 153.00 1200.01 135 153 2.000 10000.000 0.000 0.703
52 156.00 1200.01 110 133 2.000 10000.000 0.000 0.703
53 159.00 1200.01 122 190 2.000 10000.000 0.000 0.703
54 162.00 1200.01 128 181 2.000 10000.000 0.000 0.703
55 165.00 1200.01 134 208 2.000 10000.000 0.000 0.703
56 168.00 1200.01 129 214 2.000 10000.000 0.000 0.703
57 171.00 1200.01 127 206 2.000 10000.000 0.000 0.703
58 174.00 1200.01 104 211 2.000 10000.000 0.000 0.703
59 177.00 1200.01 115 197 2.000 10000.000 0.000 0.703
60 180.00 1200.01 114 147 2.000 10000.000 0.000 0.703
61 183.00 1200.01 145 163 2.000 10000.000 0.000 0.703
62 186.00 1200.01 112 153 2.000 10000.000 0.000 0.703
63 189.00 1200.01 153 127 2.000 10000.000 0.000 0.703
64 192.00 1200.01 145 147 2.000 10000.000 0.000 0.703
65 195.00 1200.01 117 155 2.000 10000.000 0.000 0.703
66 198.00 1200.01 145 193 2.000 10000.000 0.000 0.703
67 201.00 1200.01 154 190 2.000 10000.000 0.000 0.703
68 204.00 1200.01 156 226 2.000 10000.000 0.000 0.703
69 207.00 1200.01 195 253 2.000 10000.000 0.000 0.703
70 210.00 1200.01 159 286 2.000 10000.000 0.000 0.703
71 213.00 1200.01 166 311 2.000 10000.000 0.000 0.703
72 216.00 1200.01 189 322 2.000 10000.000 0.000 0.703
73 219.00 1200.01 167 284 2.000 10000.000 0.000 0.703
74 222.00 1200.01 186 310 2.000 10000.000 0.000 0.703
75 225.00 1200.01 172 282 2.000 10000.000 0.000 0.703
76 228.00 1200.01 181 259 2.000 10000.000 0.000 0.703
77 231.00 1200.01 156 244 2.000 10000.000 0.000 0.703
78 234.00 1200.01 164 199 2.000 10000.000 0.000 0.703
79 237.00 1200.01 144 171 2.000 10000.000 0.000 0.703
80 240.00 1200.01 137 135 2.000 10000.000 0.000 0.703
81 243.00 1200.01 134 118 2.000 10000.000 0.000 0.703
82 246.00 1200.01 121 111 2.000 10000.000 0.000 0.703
83 249.00 1200.01 134 132 2.000 10000.000 0.000 0.703
84 252.00 1200.01 143 146 2.000 10000.000 0.000 0.703
85 255.00 1200.01 129 152 2.000 10000.000 0.000 0.703
86 258.00 1200.01 139 188 2.000 10000.000 0.000 0.703
87 261.00 1200.01 130 203 2.000 10000.000 0.000 0.703
88 264.00 1200.01 137 182 2.000 10000.000 0.000 0.703
89 267.00 1200.01 134 210 2.000 10000.000 0.000 0.703
90 270.00 1200.01 135 210 2.000 10000.000 0.000 0.703
91 273.00 1200.01 110 201 2.000 10000.000 0.000 0.703
92 276.00 1200.01 135 174 2.000 10000.000 0.000 0.703
93 279.00 1200.01 123 193 2.000 10000.000 0.000 0.703
94 282.00 1200.01 99 161 2.000 10000.000 0.000 0.703
95 285.00 1200.01 125 146 2.000 10000.000 0.000 0.703
96 288.00 1200.01 132 152 2.000 10000.000 0.000 0.703
97 291.00 1200.01 146 115 2.000 10000.000 0.000 0.703
98 294.00 1200.01 132 150 2.000 10000.000 0.000 0.703
99 297.00 1200.01 144 151 2.000 10000.000 0.000 0.703
100 300.00 1200.01 128 183 2.000 10000.000 0.000 0.703
