# BinNR microsec tot-time (s)  O-Beam AUX Ampl(V) f(Hz) phase(deg) chi(pos)
0 0.00 1200.01 54 68 2.000 10000.000 0.000 0.901
1 3.00 1200.01 122 146 2.000 10000.000 0.000 0.901
2 6.00 1200.01 118 161 2.000 10000.000 0.000 0.901
3 9.00 1200.01 129 165 2.000 10000.000 0.000 0.901
4 12.00 1200.01 140 184 2.000 10000.000 0.000 0.901
5 15.00 1200.01 142 186 2.000 10000.000 0.000 0.901
6 18.00 1200.01 140 199 2.000 10000.000 0.000 0.901
7 21.00 1200.01 129 171 2.000 10000.000 0.000 0.901
8 24.00 1200.01 152 172 2.000 10000.000 0.000 0.901
9 27.00 1200.01 144 153 2.000 10000.000 0.000 0.901
10 30.00 1200.01 123 175 2.000 10000.000 0.000 0.901
11 33.00 1200.01 113 133 2.000 10000.000 0.000 0.901
12 36.00 1200.01 136 120 2.000 10000.000 0.000 0.901
13 39.00 1200.01 129 128 2.000 10000.000 0.000 0.901
14 42.00 1200.01 120 126 2.000 10000.000 0.000 0.901
15 45.00 1200.01 119 156 2.000 10000.000 0.000 0.901
16 48.00 1200.01 135 189 2.000 10000.000 0.000 0.901
17 51.00 1200.01 100 176 2.000 10000.000 0.000 0.901
18 54.00 1200.01 106 210 2.000 10000.000 0.000 0.901
19 57.00 1200.01 133 242 2.000 10000.000 0.000 0.901
20 60.00 1200.01 118 254 2.000 10000.000 0.000 0.901
21 63.00 1200.01 95 314 2.000 10000.000 0.000 0.901
22 66.00 1200.01 111 308 2.000 10000.000 0.000 0.901
23 69.00 1200.01 130 317 2.000 10000.000 0.000 0.901
24 72.00 1200.01 116 309 2.000 10000.000 0.000 0.901
25 75.00 1200.01 90 311 2.000 10000.000 0.000 0.901
26 78.00 1200.01 98 266 2.000 10000.000 0.000 0.901
27 81.00 1200.01 111 229 2.000 10000.000 0.000 0.901
28 84.00 1200.01 122 199 2.000 10000.000 0.000 0.901
29 87.00 1200.01 108 165 2.000 10000.000 0.000 0.901
30 90.00 1200.01 103 154 2.000 10000.000 0.000 0.901
31 93.00 1200.01 105 139 2.000 10000.000 0.000 0.901
32 96.00 1200.01 104 137 2.000 10000.000 0.000 0.901
33 99.00 1200.01 128 144 2.000 10000.000 0.000 0.901
34 102.00 1200.01 105 170 2.000 10000.000 0.000 0.901
35 105.00 1200.01 145 153 2.000 10000.000 0.000 0.901
36 108.00 1200.01 123 189 2.000 10000.000 0.000 0.901
37 111.00 1200.01 141 199 2.000 10000.000 0.000 0.901
38 114.00 1200.01 150 207 2.000 10000.000 0.000 0.901
39 117.00 1200.01 118 204 2.000 10000.000 0.000 0.901
40 120.00 1200.01 150 194 2.000 10000.000 0.000 0.901
41 123.00 1200.01 131 169 2.000 10000.000 0.000 0.901
42 126.00 1200.01 150 167 2.000 10000.000 0.000 0.901
43 129.00 1200.01 133 179 2.000 10000.000 0.000 0.901
44 132.00 1200.01 128 120 2.000 10000.000 0.000 0.901
45 135.00 1200.01 134 152 2.000 10000.000 0.000 0.901
46 138.00 1200.01 122 115 2.000 10000.000 0.000 0.901
47 141.00 1200.01 128 133 2.000 10000.000 0.000 0.901
48 144.00 1200.01 122 147 2.000 10000.000 0.000 0.901
49 147.00 1200.01 119 182 2.000 10000.000 0.000 0.901
50 150.00 1200.01 126 191 2.000 10000.000 0.000 0.901
51 153.00 1200.01 94 204 2.000 10000.000 0.000 0.901
52 156.00 1200.01 104 233 2.000 10000.000 0.000 0.901
53 159.00 1200.01 105 291 2.000 10000.000 0.000 0.901
54 162.00 1200.01 108 351 2.000 10000.000 0.000 0.901
55 165.00 1200.01 108 312 2.000 10000.000 0.000 0.901
56 168.00 1200.01 106 335 2.000 10000.000 0.000 0.901
57 171.00 1200.01 109 345 2.000 10000.000 0.000 0.901
58 174.00 1200.01 144 311 2.000 10000.000 0.000 0.901
59 177.00 1200.01 135 289 2.000 10000.000 0.000 0.901
60 180.00 1200.01 119 258 2.000 10000.000 0.000 0.901
61 183.00 1200.01 113 226 2.000 10000.000 0.000 0.901
62 186.00 1200.01 100 199 2.000 10000.000 0.000 0.901
63 189.00 1200.01 123 135 2.000 10000.000 0.000 0.901
64 192.00 1200.01 109 150 2.000 10000.000 0.000 0.901
65 195.00 1200.01 113 133 2.000 10000.000 0.000 0.901
66 198.00 1200.01 109 156 2.000 10000.000 0.000 0.901
67 201.00 1200.01 99 130 2.000 10000.000 0.000 0.901
68 204.00 1200.01 121 144 2.000 10000.000 0.000 0.901
69 207.00 1200.01 141 166 2.000 10000.000 0.000 0.901
70 210.00 1200.01 129 170 2.000 10000.000 0.000 0.901
71 213.00 1200.01 128 185 2.000 10000.000 0.000 0.901
72 216.00 1200.01 144 217 2.000 10000.000 0.000 0.901
73 219.00 1200.01 140 185 2.000 10000.000 0.000 0.901
74 222.00 1200.01 139 194 2.000 10000.000 0.000 0.901
75 225.00 1200.01 159 169 2.000 10000.000 0.000 0.901
76 228.00 1200.01 134 153 2.000 10000.000 0.000 0.901
77 231.00 1200.01 127 143 2.000 10000.000 0.000 0.901
78 234.00 1200.01 136 135 2.000 10000.000 0.000 0.901
79 237.00 1200.01 112 131 2.000 10000.000 0.000 0.901
80 240.00 1200.01 139 114 2.000 10000.000 0.000 0.901
81 243.00 1200.01 106 144 2.000 10000.000 0.000 0.901
82 246.00 1200.01 99 138 2.000 10000.000 0.000 0.901
83 249.00 1200.01 98 194 2.000 10000.000 0.000 0.901
84 252.00 1200.01 118 227 2.000 10000.000 0.000 0.901
85 255.00 1200.01 120 261 2.000 10000.000 0.000 0.901
86 258.00 1200.01 104 282 2.000 10000.000 0.000 0.901
87 261.00 1200.01 121 321 2.000 10000.000 0.000 0.901
88 264.00 1200.01 96 330 2.000 10000.000 0.000 0.901
89 267.00 1200.01 106 352 2.000 10000.000 0.000 0.901
90 270.00 1200.01 142 310 2.000 10000.000 0.000 0.901
91 273.00 1200.01 126 320 2.000 10000.000 0.000 0.901
92 276.00 1200.01 108 291 2.000 10000.000 0.000 0.901
93 279.00 1200.01 114 246 2.000 10000.000 0.000 0.901
94 282.00 1200.01 114 249 2.000 10000.000 0.000 0.901
95 285.00 1200.01 99 219 2.000 10000.000 0.000 0.901
96 288.00 1200.01 105 178 2.000 10000.000 0.000 0.901
97 291.00 1200.01 124 147 2.000 10000.000 0.000 0.901
98 294.00 1200.01 112 136 2.000 10000.000 0.000 0.901
99 297.00 1200.01 120 118 2.000 10000.000 0.000 0.901
100 300.00 1200.01 112 129 2.000 10000.000 0.000 0.901
