# BinNR microsec tot-time (s)  O-Beam AUX Ampl(V) f(Hz) phase(deg) chi(pos)
0 0.00 1200.01 79 278 1.100 10000.000 0.000 0.890
1 3.00 1200.01 179 545 1.100 10000.000 0.000 0.890
2 6.00 1200.01 212 543 1.100 10000.000 0.000 0.890
3 9.00 1200.01 144 583 1.100 10000.000 0.000 0.890
4 12.00 1200.01 165 626 1.100 10000.000 0.000 0.890
5 15.00 1200.01 167 604 1.100 10000.000 0.000 0.890
6 18.00 1200.01 176 580 1.100 10000.000 0.000 0.890
7 21.00 1200.01 156 537 1.100 10000.000 0.000 0.890
8 24.00 1200.01 178 542 1.100 10000.000 0.000 0.890
9 27.00 1200.01 177 548 1.100 10000.000 0.000 0.890
10 30.00 1200.01 193 577 1.100 10000.000 0.000 0.890
11 33.00 1200.01 177 527 1.100 10000.000 0.000 0.890
12 36.00 1200.01 182 518 1.100 10000.000 0.000 0.890
13 39.00 1200.01 186 534 1.100 10000.000 0.000 0.890
14 42.00 1200.01 166 533 1.100 10000.000 0.000 0.890
15 45.00 1200.01 164 539 1.100 10000.000 0.000 0.890
16 48.00 1200.01 184 623 1.100 10000.000 0.000 0.890
17 51.00 1200.01 186 558 1.100 10000.000 0.000 0.890
18 54.00 1200.01 185 570 1.100 10000.000 0.000 0.890
19 57.00 1200.01 172 554 1.100 10000.000 0.000 0.890
20 60.00 1200.01 191 546 1.100 10000.000 0.000 0.890
21 63.00 1200.01 158 502 1.100 10000.000 0.000 0.890
22 66.00 1200.01 173 562 1.100 10000.000 0.000 0.890
23 69.00 1200.01 172 555 1.100 10000.000 0.000 0.890
24 72.00 1200.01 185 544 1.100 10000.000 0.000 0.890
25 75.00 1200.01 163 516 1.100 10000.000 0.000 0.890
26 78.00 1200.01 171 533 1.100 10000.000 0.000 0.890
27 81.00 1200.01 179 582 1.100 10000.000 0.000 0.890
28 84.00 1200.01 160 546 1.100 10000.000 0.000 0.890
29 87.00 1200.01 167 544 1.100 10000.000 0.000 0.890
30 90.00 1200.01 153 562 1.100 10000.000 0.000 0.890
31 93.00 1200.01 185 522 1.100 10000.000 0.000 0.890
32 96.00 1200.01 168 522 1.100 10000.000 0.000 0.890
33 99.00 1200.01 174 575 1.100 10000.000 0.000 0.890
34 102.00 1200.01 162 584 1.100 10000.000 0.000 0.890
35 105.00 1200.01 176 512 1.100 10000.000 0.000 0.890
36 108.00 1200.01 185 544 1.100 10000.000 0.000 0.890
37 111.00 1200.01 164 543 1.100 10000.000 0.000 0.890
38 114.00 1200.01 208 592 1.100 10000.000 0.000 0.890
39 117.00 1200.01 179 550 1.100 10000.000 0.000 0.890
40 120.00 1200.01 168 608 1.100 10000.000 0.000 0.890
41 123.00 1200.01 196 621 1.100 10000.000 0.000 0.890
42 126.00 1200.01 164 561 1.100 10000.000 0.000 0.890
43 129.00 1200.01 171 529 1.100 10000.000 0.000 0.890
44 132.00 1200.01 197 534 1.100 10000.000 0.000 0.890
45 135.00 1200.01 204 592 1.100 10000.000 0.000 0.890
46 138.00 1200.01 197 573 1.100 10000.000 0.000 0.890
47 141.00 1200.01 189 557 1.100 10000.000 0.000 0.890
48 144.00 1200.01 156 562 1.100 10000.000 0.000 0.890
49 147.00 1200.01 185 583 1.100 10000.000 0.000 0.890
50 150.00 1200.01 161 584 1.100 10000.000 0.000 0.890
51 153.00 1200.01 194 528 1.100 10000.000 0.000 0.890
52 156.00 1200.01 188 584 1.100 10000.000 0.000 0.890
53 159.00 1200.01 190 561 1.100 10000.000 0.000 0.890
54 162.00 1200.01 158 531 1.100 10000.000 0.000 0.890
55 165.00 1200.01 209 571 1.100 10000.000 0.000 0.890
56 168.00 1200.01 172 535 1.100 10000.000 0.000 0.890
57 171.00 1200.01 193 534 1.100 10000.000 0.000 0.890
58 174.00 1200.01 177 513 1.100 10000.000 0.000 0.890
59 177.00 1200.01 157 503 1.100 10000.000 0.000 0.890
60 180.00 1200.01 185 559 1.100 10000.000 0.000 0.890
61 183.00 1200.01 140 489 1.100 10000.000 0.000 0.890
62 186.00 1200.01 160 511 1.100 10000.000 0.000 0.890
63 189.00 1200.01 166 562 1.100 10000.000 0.000 0.890
64 192.00 1200.01 184 576 1.100 10000.000 0.000 0.890
65 195.00 1200.01 174 594 1.100 10000.000 0.000 0.890
66 198.00 1200.01 181 574 1.100 10000.000 0.000 0.890
67 201.00 1200.01 195 507 1.100 10000.000 0.000 0.890
68 204.00 1200.01 181 527 1.100 10000.000 0.000 0.890
69 207.00 1200.01 164 567 1.100 10000.000 0.000 0.890
70 210.00 1200.01 174 552 1.100 10000.000 0.000 0.890
71 213.00 1200.01 171 544 1.100 10000.000 0.000 0.890
72 216.00 1200.01 184 555 1.100 10000.000 0.000 0.890
73 219.00 1200.01 188 570 1.100 10000.000 0.000 0.890
74 222.00 1200.01 190 536 1.100 10000.000 0.000 0.890
75 225.00 1200.01 169 587 1.100 10000.000 0.000 0.890
76 228.00 1200.01 176 584 1.100 10000.000 0.000 0.890
77 231.00 1200.01 169 609 1.100 10000.000 0.000 0.890
78 234.00 1200.01 189 563 1.100 10000.000 0.000 0.890
79 237.00 1200.01 176 553 1.100 10000.000 0.000 0.890
80 240.00 1200.01 187 573 1.100 10000.000 0.000 0.890
81 243.00 1200.01 189 539 1.100 10000.000 0.000 0.890
82 246.00 1200.01 177 564 1.100 10000.000 0.000 0.890
83 249.00 1200.01 176 562 1.100 10000.000 0.000 0.890
84 252.00 1200.01 203 606 1.100 10000.000 0.000 0.890
85 255.00 1200.01 186 588 1.100 10000.000 0.000 0.890
86 258.00 1200.01 165 552 1.100 10000.000 0.000 0.890
87 261.00 1200.01 174 506 1.100 10000.000 0.000 0.890
88 264.00 1200.01 153 569 1.100 10000.000 0.000 0.890
89 267.00 1200.01 213 530 1.100 10000.000 0.000 0.890
90 270.00 1200.01 198 561 1.100 10000.000 0.000 0.890
91 273.00 1200.01 182 500 1.100 10000.000 0.000 0.890
92 276.00 1200.01 175 565 1.100 10000.000 0.000 0.890
93 279.00 1200.01 164 476 1.100 10000.000 0.000 0.890
94 282.00 1200.01 187 605 1.100 10000.000 0.000 0.890
95 285.00 1200.01 168 575 1.100 10000.000 0.000 0.890
96 288.00 1200.01 154 540 1.100 10000.000 0.000 0.890
97 291.00 1200.01 176 525 1.100 10000.000 0.000 0.890
98 294.00 1200.01 183 575 1.100 10000.000 0.000 0.890
99 297.00 1200.01 179 593 1.100 10000.000 0.000 0.890
100 300.00 1200.01 188 538 1.100 10000.000 0.000 0.890
101 303.00 1200.01 147 463 1.100 10000.000 0.000 0.890
