# BinNR microsec tot-time (s)  O-Beam AUX Ampl(V) f(Hz) phase(deg) chi(pos)
0 0.00 1200.01 237 664 1.100 10000.000 0.000 1.505
1 3.00 1200.01 440 1397 1.100 10000.000 0.000 1.505
2 6.00 1200.01 473 1404 1.100 10000.000 0.000 1.505
3 9.00 1200.01 445 1373 1.100 10000.000 0.000 1.505
4 12.00 1200.01 458 1450 1.100 10000.000 0.000 1.505
5 15.00 1200.01 505 1361 1.100 10000.000 0.000 1.505
6 18.00 1200.01 484 1399 1.100 10000.000 0.000 1.505
7 21.00 1200.01 445 1385 1.100 10000.000 0.000 1.505
8 24.00 1200.01 431 1356 1.100 10000.000 0.000 1.505
9 27.00 1200.01 466 1371 1.100 10000.000 0.000 1.505
10 30.00 1200.01 444 1432 1.100 10000.000 0.000 1.505
11 33.00 1200.01 471 1403 1.100 10000.000 0.000 1.505
12 36.00 1200.01 476 1399 1.100 10000.000 0.000 1.505
13 39.00 1200.01 446 1371 1.100 10000.000 0.000 1.505
14 42.00 1200.01 483 1447 1.100 10000.000 0.000 1.505
15 45.00 1200.01 471 1340 1.100 10000.000 0.000 1.505
16 48.00 1200.01 447 1410 1.100 10000.000 0.000 1.505
17 51.00 1200.01 460 1434 1.100 10000.000 0.000 1.505
18 54.00 1200.01 461 1423 1.100 10000.000 0.000 1.505
19 57.00 1200.01 479 1346 1.100 10000.000 0.000 1.505
20 60.00 1200.01 478 1334 1.100 10000.000 0.000 1.505
21 63.00 1200.01 450 1369 1.100 10000.000 0.000 1.505
22 66.00 1200.01 483 1413 1.100 10000.000 0.000 1.505
23 69.00 1200.01 439 1394 1.100 10000.000 0.000 1.505
24 72.00 1200.01 481 1486 1.100 10000.000 0.000 1.505
25 75.00 1200.01 496 1437 1.100 10000.000 0.000 1.505
26 78.00 1200.01 476 1429 1.100 10000.000 0.000 1.505
27 81.00 1200.01 472 1368 1.100 10000.000 0.000 1.505
28 84.00 1200.01 437 1410 1.100 10000.000 0.000 1.505
29 87.00 1200.01 461 1383 1.100 10000.000 0.000 1.505
30 90.00 1200.01 445 1368 1.100 10000.000 0.000 1.505
31 93.00 1200.01 465 1336 1.100 10000.000 0.000 1.505
32 96.00 1200.01 467 1423 1.100 10000.000 0.000 1.505
33 99.00 1200.01 441 1385 1.100 10000.000 0.000 1.505
34 102.00 1200.01 488 1375 1.100 10000.000 0.000 1.505
35 105.00 1200.01 472 1405 1.100 10000.000 0.000 1.505
36 108.00 1200.01 457 1456 1.100 10000.000 0.000 1.505
37 111.00 1200.01 492 1386 1.100 10000.000 0.000 1.505
38 114.00 1200.01 504 1409 1.100 10000.000 0.000 1.505
39 117.00 1200.01 463 1362 1.100 10000.000 0.000 1.505
40 120.00 1200.01 496 1416 1.100 10000.000 0.000 1.505
41 123.00 1200.01 471 1408 1.100 10000.000 0.000 1.505
42 126.00 1200.01 460 1362 1.100 10000.000 0.000 1.505
43 129.00 1200.01 469 1366 1.100 10000.000 0.000 1.505
44 132.00 1200.01 488 1421 1.100 10000.000 0.000 1.505
45 135.00 1200.01 474 1380 1.100 10000.000 0.000 1.505
46 138.00 1200.01 449 1387 1.100 10000.000 0.000 1.505
47 141.00 1200.01 475 1333 1.100 10000.000 0.000 1.505
48 144.00 1200.01 460 1459 1.100 10000.000 0.000 1.505
49 147.00 1200.01 491 1482 1.100 10000.000 0.000 1.505
50 150.00 1200.01 481 1414 1.100 10000.000 0.000 1.505
51 153.00 1200.01 428 1371 1.100 10000.000 0.000 1.505
52 156.00 1200.01 455 1382 1.100 10000.000 0.000 1.505
53 159.00 1200.01 457 1402 1.100 10000.000 0.000 1.505
54 162.00 1200.01 492 1451 1.100 10000.000 0.000 1.505
55 165.00 1200.01 473 1365 1.100 10000.000 0.000 1.505
56 168.00 1200.01 457 1386 1.100 10000.000 0.000 1.505
57 171.00 1200.01 479 1320 1.100 10000.000 0.000 1.505
58 174.00 1200.01 457 1417 1.100 10000.000 0.000 1.505
59 177.00 1200.01 489 1435 1.100 10000.000 0.000 1.505
60 180.00 1200.01 474 1380 1.100 10000.000 0.000 1.505
61 183.00 1200.01 451 1374 1.100 10000.000 0.000 1.505
62 186.00 1200.01 484 1446 1.100 10000.000 0.000 1.505
63 189.00 1200.01 537 1360 1.100 10000.000 0.000 1.505
64 192.00 1200.01 489 1409 1.100 10000.000 0.000 1.505
65 195.00 1200.01 460 1408 1.100 10000.000 0.000 1.505
66 198.00 1200.01 484 1386 1.100 10000.000 0.000 1.505
67 201.00 1200.01 473 1377 1.100 10000.000 0.000 1.505
68 204.00 1200.01 492 1367 1.100 10000.000 0.000 1.505
69 207.00 1200.01 427 1422 1.100 10000.000 0.000 1.505
70 210.00 1200.01 461 1396 1.100 10000.000 0.000 1.505
71 213.00 1200.01 487 1335 1.100 10000.000 0.000 1.505
72 216.00 1200.01 477 1423 1.100 10000.000 0.000 1.505
73 219.00 1200.01 483 1338 1.100 10000.000 0.000 1.505
74 222.00 1200.01 460 1384 1.100 10000.000 0.000 1.505
75 225.00 1200.01 449 1372 1.100 10000.000 0.000 1.505
76 228.00 1200.01 489 1400 1.100 10000.000 0.000 1.505
77 231.00 1200.01 493 1405 1.100 10000.000 0.000 1.505
78 234.00 1200.01 468 1495 1.100 10000.000 0.000 1.505
79 237.00 1200.01 470 1397 1.100 10000.000 0.000 1.505
80 240.00 1200.01 516 1352 1.100 10000.000 0.000 1.505
81 243.00 1200.01 454 1335 1.100 10000.000 0.000 1.505
82 246.00 1200.01 497 1445 1.100 10000.000 0.000 1.505
83 249.00 1200.01 494 1394 1.100 10000.000 0.000 1.505
84 252.00 1200.01 525 1406 1.100 10000.000 0.000 1.505
85 255.00 1200.01 533 1394 1.100 10000.000 0.000 1.505
86 258.00 1200.01 458 1343 1.100 10000.000 0.000 1.505
87 261.00 1200.01 407 1344 1.100 10000.000 0.000 1.505
88 264.00 1200.01 467 1369 1.100 10000.000 0.000 1.505
89 267.00 1200.01 432 1390 1.100 10000.000 0.000 1.505
90 270.00 1200.01 439 1448 1.100 10000.000 0.000 1.505
91 273.00 1200.01 485 1363 1.100 10000.000 0.000 1.505
92 276.00 1200.01 458 1443 1.100 10000.000 0.000 1.505
93 279.00 1200.01 479 1394 1.100 10000.000 0.000 1.505
94 282.00 1200.01 461 1480 1.100 10000.000 0.000 1.505
95 285.00 1200.01 481 1396 1.100 10000.000 0.000 1.505
96 288.00 1200.01 454 1462 1.100 10000.000 0.000 1.505
97 291.00 1200.01 417 1436 1.100 10000.000 0.000 1.505
98 294.00 1200.01 496 1367 1.100 10000.000 0.000 1.505
99 297.00 1200.01 452 1337 1.100 10000.000 0.000 1.505
100 300.00 1200.01 470 1437 1.100 10000.000 0.000 1.505
101 303.00 1200.01 404 1178 1.100 10000.000 0.000 1.505
