# BinNR microsec tot-time (s)  O-Beam AUX Ampl(V) f(Hz) phase(deg) chi(pos)
0 0.00 1200.00 260 600 1.100 10000.000 0.000 -0.297
1 3.00 1200.00 450 1188 1.100 10000.000 0.000 -0.297
2 6.00 1200.00 506 1236 1.100 10000.000 0.000 -0.297
3 9.00 1200.00 490 1268 1.100 10000.000 0.000 -0.297
4 12.00 1200.00 506 1272 1.100 10000.000 0.000 -0.297
5 15.00 1200.00 471 1206 1.100 10000.000 0.000 -0.297
6 18.00 1200.00 541 1301 1.100 10000.000 0.000 -0.297
7 21.00 1200.00 447 1224 1.100 10000.000 0.000 -0.297
8 24.00 1200.00 466 1245 1.100 10000.000 0.000 -0.297
9 27.00 1200.00 467 1254 1.100 10000.000 0.000 -0.297
10 30.00 1200.00 467 1185 1.100 10000.000 0.000 -0.297
11 33.00 1200.00 479 1203 1.100 10000.000 0.000 -0.297
12 36.00 1200.00 488 1229 1.100 10000.000 0.000 -0.297
13 39.00 1200.00 434 1222 1.100 10000.000 0.000 -0.297
14 42.00 1200.00 491 1235 1.100 10000.000 0.000 -0.297
15 45.00 1200.00 469 1234 1.100 10000.000 0.000 -0.297
16 48.00 1200.00 539 1221 1.100 10000.000 0.000 -0.297
17 51.00 1200.00 515 1252 1.100 10000.000 0.000 -0.297
18 54.00 1200.00 469 1242 1.100 10000.000 0.000 -0.297
19 57.00 1200.00 472 1203 1.100 10000.000 0.000 -0.297
20 60.00 1200.00 476 1227 1.100 10000.000 0.000 -0.297
21 63.00 1200.00 456 1235 1.100 10000.000 0.000 -0.297
22 66.00 1200.00 494 1228 1.100 10000.000 0.000 -0.297
23 69.00 1200.00 500 1244 1.100 10000.000 0.000 -0.297
24 72.00 1200.00 472 1341 1.100 10000.000 0.000 -0.297
25 75.00 1200.00 486 1150 1.100 10000.000 0.000 -0.297
26 78.00 1200.00 492 1261 1.100 10000.000 0.000 -0.297
27 81.00 1200.00 461 1218 1.100 10000.000 0.000 -0.297
28 84.00 1200.00 483 1264 1.100 10000.000 0.000 -0.297
29 87.00 1200.00 449 1200 1.100 10000.000 0.000 -0.297
30 90.00 1200.00 499 1238 1.100 10000.000 0.000 -0.297
31 93.00 1200.00 464 1137 1.100 10000.000 0.000 -0.297
32 96.00 1200.00 541 1353 1.100 10000.000 0.000 -0.297
33 99.00 1200.00 424 1295 1.100 10000.000 0.000 -0.297
34 102.00 1200.00 477 1226 1.100 10000.000 0.000 -0.297
35 105.00 1200.00 537 1225 1.100 10000.000 0.000 -0.297
36 108.00 1200.00 480 1281 1.100 10000.000 0.000 -0.297
37 111.00 1200.00 452 1276 1.100 10000.000 0.000 -0.297
38 114.00 1200.00 502 1284 1.100 10000.000 0.000 -0.297
39 117.00 1200.00 451 1213 1.100 10000.000 0.000 -0.297
40 120.00 1200.00 488 1264 1.100 10000.000 0.000 -0.297
41 123.00 1200.00 444 1227 1.100 10000.000 0.000 -0.297
42 126.00 1200.00 450 1198 1.100 10000.000 0.000 -0.297
43 129.00 1200.00 494 1214 1.100 10000.000 0.000 -0.297
44 132.00 1200.00 502 1235 1.100 10000.000 0.000 -0.297
45 135.00 1200.00 490 1255 1.100 10000.000 0.000 -0.297
46 138.00 1200.00 453 1194 1.100 10000.000 0.000 -0.297
47 141.00 1200.00 517 1276 1.100 10000.000 0.000 -0.297
48 144.00 1200.00 482 1231 1.100 10000.000 0.000 -0.297
49 147.00 1200.00 489 1233 1.100 10000.000 0.000 -0.297
50 150.00 1200.00 436 1270 1.100 10000.000 0.000 -0.297
51 153.00 1200.00 478 1243 1.100 10000.000 0.000 -0.297
52 156.00 1200.00 470 1281 1.100 10000.000 0.000 -0.297
53 159.00 1200.00 473 1258 1.100 10000.000 0.000 -0.297
54 162.00 1200.00 507 1279 1.100 10000.000 0.000 -0.297
55 165.00 1200.00 458 1259 1.100 10000.000 0.000 -0.297
56 168.00 1200.00 509 1227 1.100 10000.000 0.000 -0.297
57 171.00 1200.00 456 1224 1.100 10000.000 0.000 -0.297
58 174.00 1200.00 507 1214 1.100 10000.000 0.000 -0.297
59 177.00 1200.00 489 1194 1.100 10000.000 0.000 -0.297
60 180.00 1200.00 473 1250 1.100 10000.000 0.000 -0.297
61 183.00 1200.00 474 1265 1.100 10000.000 0.000 -0.297
62 186.00 1200.00 500 1179 1.100 10000.000 0.000 -0.297
63 189.00 1200.00 483 1285 1.100 10000.000 0.000 -0.297
64 192.00 1200.00 471 1309 1.100 10000.000 0.000 -0.297
65 195.00 1200.00 448 1175 1.100 10000.000 0.000 -0.297
66 198.00 1200.00 457 1254 1.100 10000.000 0.000 -0.297
67 201.00 1200.00 477 1263 1.100 10000.000 0.000 -0.297
68 204.00 1200.00 493 1323 1.100 10000.000 0.000 -0.297
69 207.00 1200.00 449 1219 1.100 10000.000 0.000 -0.297
70 210.00 1200.00 487 1244 1.100 10000.000 0.000 -0.297
71 213.00 1200.00 462 1239 1.100 10000.000 0.000 -0.297
72 216.00 1200.00 468 1304 1.100 10000.000 0.000 -0.297
73 219.00 1200.00 463 1220 1.100 10000.000 0.000 -0.297
74 222.00 1200.00 457 1255 1.100 10000.000 0.000 -0.297
75 225.00 1200.00 516 1165 1.100 10000.000 0.000 -0.297
76 228.00 1200.00 478 1257 1.100 10000.000 0.000 -0.297
77 231.00 1200.00 468 1261 1.100 10000.000 0.000 -0.297
78 234.00 1200.00 492 1229 1.100 10000.000 0.000 -0.297
79 237.00 1200.00 506 1201 1.100 10000.000 0.000 -0.297
80 240.00 1200.00 473 1271 1.100 10000.000 0.000 -0.297
81 243.00 1200.00 520 1194 1.100 10000.000 0.000 -0.297
82 246.00 1200.00 501 1270 1.100 10000.000 0.000 -0.297
83 249.00 1200.00 447 1252 1.100 10000.000 0.000 -0.297
84 252.00 1200.00 486 1258 1.100 10000.000 0.000 -0.297
85 255.00 1200.00 494 1236 1.100 10000.000 0.000 -0.297
86 258.00 1200.00 508 1180 1.100 10000.000 0.000 -0.297
87 261.00 1200.00 460 1213 1.100 10000.000 0.000 -0.297
88 264.00 1200.00 519 1217 1.100 10000.000 0.000 -0.297
89 267.00 1200.00 472 1237 1.100 10000.000 0.000 -0.297
90 270.00 1200.00 457 1240 1.100 10000.000 0.000 -0.297
91 273.00 1200.00 451 1233 1.100 10000.000 0.000 -0.297
92 276.00 1200.00 495 1382 1.100 10000.000 0.000 -0.297
93 279.00 1200.00 461 1234 1.100 10000.000 0.000 -0.297
94 282.00 1200.00 461 1246 1.100 10000.000 0.000 -0.297
95 285.00 1200.00 441 1273 1.100 10000.000 0.000 -0.297
96 288.00 1200.00 462 1272 1.100 10000.000 0.000 -0.297
97 291.00 1200.00 475 1227 1.100 10000.000 0.000 -0.297
98 294.00 1200.00 480 1303 1.100 10000.000 0.000 -0.297
99 297.00 1200.00 448 1273 1.100 10000.000 0.000 -0.297
100 300.00 1200.00 438 1262 1.100 10000.000 0.000 -0.297
101 303.00 1200.00 394 1036 1.100 10000.000 0.000 -0.297
