# BinNR microsec tot-time (s)  O-Beam AUX Ampl(V) f(Hz) phase(deg) chi(pos)
0 0.00 1200.00 177 620 1.100 10000.000 0.000 1.285
1 3.00 1200.00 383 1179 1.100 10000.000 0.000 1.285
2 6.00 1200.00 405 1246 1.100 10000.000 0.000 1.285
3 9.00 1200.00 375 1259 1.100 10000.000 0.000 1.285
4 12.00 1200.00 398 1282 1.100 10000.000 0.000 1.285
5 15.00 1200.00 371 1187 1.100 10000.000 0.000 1.285
6 18.00 1200.00 410 1236 1.100 10000.000 0.000 1.285
7 21.00 1200.00 410 1243 1.100 10000.000 0.000 1.285
8 24.00 1200.00 407 1244 1.100 10000.000 0.000 1.285
9 27.00 1200.00 412 1199 1.100 10000.000 0.000 1.285
10 30.00 1200.00 417 1260 1.100 10000.000 0.000 1.285
11 33.00 1200.00 369 1301 1.100 10000.000 0.000 1.285
12 36.00 1200.00 416 1263 1.100 10000.000 0.000 1.285
13 39.00 1200.00 367 1211 1.100 10000.000 0.000 1.285
14 42.00 1200.00 448 1241 1.100 10000.000 0.000 1.285
15 45.00 1200.00 406 1310 1.100 10000.000 0.000 1.285
16 48.00 1200.00 386 1248 1.100 10000.000 0.000 1.285
17 51.00 1200.00 379 1205 1.100 10000.000 0.000 1.285
18 54.00 1200.00 442 1232 1.100 10000.000 0.000 1.285
19 57.00 1200.00 374 1270 1.100 10000.000 0.000 1.285
20 60.00 1200.00 399 1241 1.100 10000.000 0.000 1.285
21 63.00 1200.00 391 1266 1.100 10000.000 0.000 1.285
22 66.00 1200.00 379 1247 1.100 10000.000 0.000 1.285
23 69.00 1200.00 373 1221 1.100 10000.000 0.000 1.285
24 72.00 1200.00 377 1306 1.100 10000.000 0.000 1.285
25 75.00 1200.00 370 1201 1.100 10000.000 0.000 1.285
26 78.00 1200.00 369 1239 1.100 10000.000 0.000 1.285
27 81.00 1200.00 378 1292 1.100 10000.000 0.000 1.285
28 84.00 1200.00 371 1202 1.100 10000.000 0.000 1.285
29 87.00 1200.00 414 1227 1.100 10000.000 0.000 1.285
30 90.00 1200.00 449 1273 1.100 10000.000 0.000 1.285
31 93.00 1200.00 377 1263 1.100 10000.000 0.000 1.285
32 96.00 1200.00 409 1236 1.100 10000.000 0.000 1.285
33 99.00 1200.00 396 1264 1.100 10000.000 0.000 1.285
34 102.00 1200.00 423 1279 1.100 10000.000 0.000 1.285
35 105.00 1200.00 389 1301 1.100 10000.000 0.000 1.285
36 108.00 1200.00 379 1286 1.100 10000.000 0.000 1.285
37 111.00 1200.00 373 1233 1.100 10000.000 0.000 1.285
38 114.00 1200.00 397 1290 1.100 10000.000 0.000 1.285
39 117.00 1200.00 372 1228 1.100 10000.000 0.000 1.285
40 120.00 1200.00 399 1240 1.100 10000.000 0.000 1.285
41 123.00 1200.00 418 1263 1.100 10000.000 0.000 1.285
42 126.00 1200.00 400 1291 1.100 10000.000 0.000 1.285
43 129.00 1200.00 422 1321 1.100 10000.000 0.000 1.285
44 132.00 1200.00 383 1226 1.100 10000.000 0.000 1.285
45 135.00 1200.00 392 1196 1.100 10000.000 0.000 1.285
46 138.00 1200.00 397 1270 1.100 10000.000 0.000 1.285
47 141.00 1200.00 413 1221 1.100 10000.000 0.000 1.285
48 144.00 1200.00 398 1251 1.100 10000.000 0.000 1.285
49 147.00 1200.00 384 1250 1.100 10000.000 0.000 1.285
50 150.00 1200.00 410 1248 1.100 10000.000 0.000 1.285
51 153.00 1200.00 397 1223 1.100 10000.000 0.000 1.285
52 156.00 1200.00 415 1244 1.100 10000.000 0.000 1.285
53 159.00 1200.00 377 1244 1.100 10000.000 0.000 1.285
54 162.00 1200.00 378 1238 1.100 10000.000 0.000 1.285
55 165.00 1200.00 396 1168 1.100 10000.000 0.000 1.285
56 168.00 1200.00 446 1229 1.100 10000.000 0.000 1.285
57 171.00 1200.00 385 1238 1.100 10000.000 0.000 1.285
58 174.00 1200.00 376 1298 1.100 10000.000 0.000 1.285
59 177.00 1200.00 421 1212 1.100 10000.000 0.000 1.285
60 180.00 1200.00 416 1307 1.100 10000.000 0.000 1.285
61 183.00 1200.00 410 1154 1.100 10000.000 0.000 1.285
62 186.00 1200.00 407 1291 1.100 10000.000 0.000 1.285
63 189.00 1200.00 383 1206 1.100 10000.000 0.000 1.285
64 192.00 1200.00 430 1255 1.100 10000.000 0.000 1.285
65 195.00 1200.00 363 1209 1.100 10000.000 0.000 1.285
66 198.00 1200.00 389 1256 1.100 10000.000 0.000 1.285
67 201.00 1200.00 399 1191 1.100 10000.000 0.000 1.285
68 204.00 1200.00 380 1269 1.100 10000.000 0.000 1.285
69 207.00 1200.00 408 1163 1.100 10000.000 0.000 1.285
70 210.00 1200.00 368 1250 1.100 10000.000 0.000 1.285
71 213.00 1200.00 387 1238 1.100 10000.000 0.000 1.285
72 216.00 1200.00 357 1209 1.100 10000.000 0.000 1.285
73 219.00 1200.00 421 1344 1.100 10000.000 0.000 1.285
74 222.00 1200.00 474 1255 1.100 10000.000 0.000 1.285
75 225.00 1200.00 404 1258 1.100 10000.000 0.000 1.285
76 228.00 1200.00 392 1250 1.100 10000.000 0.000 1.285
77 231.00 1200.00 390 1258 1.100 10000.000 0.000 1.285
78 234.00 1200.00 433 1224 1.100 10000.000 0.000 1.285
79 237.00 1200.00 396 1191 1.100 10000.000 0.000 1.285
80 240.00 1200.00 424 1213 1.100 10000.000 0.000 1.285
81 243.00 1200.00 367 1275 1.100 10000.000 0.000 1.285
82 246.00 1200.00 376 1305 1.100 10000.000 0.000 1.285
83 249.00 1200.00 409 1214 1.100 10000.000 0.000 1.285
84 252.00 1200.00 376 1287 1.100 10000.000 0.000 1.285
85 255.00 1200.00 389 1251 1.100 10000.000 0.000 1.285
86 258.00 1200.00 386 1225 1.100 10000.000 0.000 1.285
87 261.00 1200.00 375 1277 1.100 10000.000 0.000 1.285
88 264.00 1200.00 393 1239 1.100 10000.000 0.000 1.285
89 267.00 1200.00 401 1211 1.100 10000.000 0.000 1.285
90 270.00 1200.00 366 1277 1.100 10000.000 0.000 1.285
91 273.00 1200.00 385 1226 1.100 10000.000 0.000 1.285
92 276.00 1200.00 374 1274 1.100 10000.000 0.000 1.285
93 279.00 1200.00 400 1271 1.100 10000.000 0.000 1.285
94 282.00 1200.00 387 1170 1.100 10000.000 0.000 1.285
95 285.00 1200.00 401 1206 1.100 10000.000 0.000 1.285
96 288.00 1200.00 406 1258 1.100 10000.000 0.000 1.285
97 291.00 1200.00 353 1158 1.100 10000.000 0.000 1.285
98 294.00 1200.00 389 1216 1.100 10000.000 0.000 1.285
99 297.00 1200.00 398 1266 1.100 10000.000 0.000 1.285
100 300.00 1200.00 424 1324 1.100 10000.000 0.000 1.285
101 303.00 1200.00 302 1060 1.100 10000.000 0.000 1.285
