# BinNR microsec tot-time (s)  O-Beam AUX Ampl(V) f(Hz) phase(deg) chi(pos)
0 0.00 1200.00 130 448 1.100 10000.000 0.000 1.099
1 3.00 1200.00 278 896 1.100 10000.000 0.000 1.099
2 6.00 1200.00 277 924 1.100 10000.000 0.000 1.099
3 9.00 1200.00 278 904 1.100 10000.000 0.000 1.099
4 12.00 1200.00 276 985 1.100 10000.000 0.000 1.099
5 15.00 1200.00 290 933 1.100 10000.000 0.000 1.099
6 18.00 1200.00 296 948 1.100 10000.000 0.000 1.099
7 21.00 1200.00 276 934 1.100 10000.000 0.000 1.099
8 24.00 1200.00 282 915 1.100 10000.000 0.000 1.099
9 27.00 1200.00 295 924 1.100 10000.000 0.000 1.099
10 30.00 1200.00 272 999 1.100 10000.000 0.000 1.099
11 33.00 1200.00 254 910 1.100 10000.000 0.000 1.099
12 36.00 1200.00 311 1003 1.100 10000.000 0.000 1.099
13 39.00 1200.00 304 910 1.100 10000.000 0.000 1.099
14 42.00 1200.00 302 986 1.100 10000.000 0.000 1.099
15 45.00 1200.00 267 968 1.100 10000.000 0.000 1.099
16 48.00 1200.00 263 1015 1.100 10000.000 0.000 1.099
17 51.00 1200.00 283 970 1.100 10000.000 0.000 1.099
18 54.00 1200.00 267 999 1.100 10000.000 0.000 1.099
19 57.00 1200.00 268 976 1.100 10000.000 0.000 1.099
20 60.00 1200.00 295 915 1.100 10000.000 0.000 1.099
21 63.00 1200.00 289 948 1.100 10000.000 0.000 1.099
22 66.00 1200.00 284 957 1.100 10000.000 0.000 1.099
23 69.00 1200.00 269 946 1.100 10000.000 0.000 1.099
24 72.00 1200.00 304 931 1.100 10000.000 0.000 1.099
25 75.00 1200.00 272 887 1.100 10000.000 0.000 1.099
26 78.00 1200.00 277 960 1.100 10000.000 0.000 1.099
27 81.00 1200.00 290 906 1.100 10000.000 0.000 1.099
28 84.00 1200.00 289 949 1.100 10000.000 0.000 1.099
29 87.00 1200.00 261 929 1.100 10000.000 0.000 1.099
30 90.00 1200.00 279 907 1.100 10000.000 0.000 1.099
31 93.00 1200.00 286 899 1.100 10000.000 0.000 1.099
32 96.00 1200.00 295 948 1.100 10000.000 0.000 1.099
33 99.00 1200.00 269 934 1.100 10000.000 0.000 1.099
34 102.00 1200.00 276 966 1.100 10000.000 0.000 1.099
35 105.00 1200.00 293 925 1.100 10000.000 0.000 1.099
36 108.00 1200.00 299 905 1.100 10000.000 0.000 1.099
37 111.00 1200.00 293 940 1.100 10000.000 0.000 1.099
38 114.00 1200.00 302 979 1.100 10000.000 0.000 1.099
39 117.00 1200.00 278 992 1.100 10000.000 0.000 1.099
40 120.00 1200.00 281 1006 1.100 10000.000 0.000 1.099
41 123.00 1200.00 284 913 1.100 10000.000 0.000 1.099
42 126.00 1200.00 300 913 1.100 10000.000 0.000 1.099
43 129.00 1200.00 282 951 1.100 10000.000 0.000 1.099
44 132.00 1200.00 308 953 1.100 10000.000 0.000 1.099
45 135.00 1200.00 301 974 1.100 10000.000 0.000 1.099
46 138.00 1200.00 301 929 1.100 10000.000 0.000 1.099
47 141.00 1200.00 282 933 1.100 10000.000 0.000 1.099
48 144.00 1200.00 296 980 1.100 10000.000 0.000 1.099
49 147.00 1200.00 279 986 1.100 10000.000 0.000 1.099
50 150.00 1200.00 294 906 1.100 10000.000 0.000 1.099
51 153.00 1200.00 282 1030 1.100 10000.000 0.000 1.099
52 156.00 1200.00 274 967 1.100 10000.000 0.000 1.099
53 159.00 1200.00 285 902 1.100 10000.000 0.000 1.099
54 162.00 1200.00 286 965 1.100 10000.000 0.000 1.099
55 165.00 1200.00 294 908 1.100 10000.000 0.000 1.099
56 168.00 1200.00 280 941 1.100 10000.000 0.000 1.099
57 171.00 1200.00 259 962 1.100 10000.000 0.000 1.099
58 174.00 1200.00 309 954 1.100 10000.000 0.000 1.099
59 177.00 1200.00 255 900 1.100 10000.000 0.000 1.099
60 180.00 1200.00 263 919 1.100 10000.000 0.000 1.099
61 183.00 1200.00 284 934 1.100 10000.000 0.000 1.099
62 186.00 1200.00 303 962 1.100 10000.000 0.000 1.099
63 189.00 1200.00 285 853 1.100 10000.000 0.000 1.099
64 192.00 1200.00 284 978 1.100 10000.000 0.000 1.099
65 195.00 1200.00 280 973 1.100 10000.000 0.000 1.099
66 198.00 1200.00 272 947 1.100 10000.000 0.000 1.099
67 201.00 1200.00 294 1002 1.100 10000.000 0.000 1.099
68 204.00 1200.00 273 923 1.100 10000.000 0.000 1.099
69 207.00 1200.00 296 877 1.100 10000.000 0.000 1.099
70 210.00 1200.00 284 941 1.100 10000.000 0.000 1.099
71 213.00 1200.00 289 900 1.100 10000.000 0.000 1.099
72 216.00 1200.00 322 965 1.100 10000.000 0.000 1.099
73 219.00 1200.00 275 936 1.100 10000.000 0.000 1.099
74 222.00 1200.00 294 892 1.100 10000.000 0.000 1.099
75 225.00 1200.00 276 935 1.100 10000.000 0.000 1.099
76 228.00 1200.00 282 959 1.100 10000.000 0.000 1.099
77 231.00 1200.00 282 938 1.100 10000.000 0.000 1.099
78 234.00 1200.00 304 951 1.100 10000.000 0.000 1.099
79 237.00 1200.00 301 979 1.100 10000.000 0.000 1.099
80 240.00 1200.00 291 980 1.100 10000.000 0.000 1.099
81 243.00 1200.00 312 988 1.100 10000.000 0.000 1.099
82 246.00 1200.00 286 977 1.100 10000.000 0.000 1.099
83 249.00 1200.00 277 954 1.100 10000.000 0.000 1.099
84 252.00 1200.00 292 937 1.100 10000.000 0.000 1.099
85 255.00 1200.00 313 918 1.100 10000.000 0.000 1.099
86 258.00 1200.00 259 966 1.100 10000.000 0.000 1.099
87 261.00 1200.00 261 944 1.100 10000.000 0.000 1.099
88 264.00 1200.00 300 962 1.100 10000.000 0.000 1.099
89 267.00 1200.00 285 924 1.100 10000.000 0.000 1.099
90 270.00 1200.00 275 961 1.100 10000.000 0.000 1.099
91 273.00 1200.00 295 904 1.100 10000.000 0.000 1.099
92 276.00 1200.00 306 977 1.100 10000.000 0.000 1.099
93 279.00 1200.00 289 899 1.100 10000.000 0.000 1.099
94 282.00 1200.00 299 993 1.100 10000.000 0.000 1.099
95 285.00 1200.00 261 902 1.100 10000.000 0.000 1.099
96 288.00 1200.00 264 971 1.100 10000.000 0.000 1.099
97 291.00 1200.00 289 897 1.100 10000.000 0.000 1.099
98 294.00 1200.00 293 948 1.100 10000.000 0.000 1.099
99 297.00 1200.00 277 905 1.100 10000.000 0.000 1.099
100 300.00 1200.00 289 957 1.100 10000.000 0.000 1.099
101 303.00 1200.00 206 814 1.100 10000.000 0.000 1.099
