# BinNR microsec tot-time (s)  O-Beam AUX Ampl(V) f(Hz) phase(deg) chi(pos)
0 0.00 1200.00 68 146 1.100 10000.000 0.000 -1.296
1 3.00 1200.00 131 315 1.100 10000.000 0.000 -1.296
2 6.00 1200.00 131 340 1.100 10000.000 0.000 -1.296
3 9.00 1200.00 133 332 1.100 10000.000 0.000 -1.296
4 12.00 1200.00 153 319 1.100 10000.000 0.000 -1.296
5 15.00 1200.00 122 342 1.100 10000.000 0.000 -1.296
6 18.00 1200.00 130 349 1.100 10000.000 0.000 -1.296
7 21.00 1200.00 124 348 1.100 10000.000 0.000 -1.296
8 24.00 1200.00 161 329 1.100 10000.000 0.000 -1.296
9 27.00 1200.00 128 320 1.100 10000.000 0.000 -1.296
10 30.00 1200.00 131 354 1.100 10000.000 0.000 -1.296
11 33.00 1200.00 138 340 1.100 10000.000 0.000 -1.296
12 36.00 1200.00 141 353 1.100 10000.000 0.000 -1.296
13 39.00 1200.00 155 343 1.100 10000.000 0.000 -1.296
14 42.00 1200.00 128 366 1.100 10000.000 0.000 -1.296
15 45.00 1200.00 137 333 1.100 10000.000 0.000 -1.296
16 48.00 1200.00 127 368 1.100 10000.000 0.000 -1.296
17 51.00 1200.00 147 336 1.100 10000.000 0.000 -1.296
18 54.00 1200.00 118 332 1.100 10000.000 0.000 -1.296
19 57.00 1200.00 133 314 1.100 10000.000 0.000 -1.296
20 60.00 1200.00 128 334 1.100 10000.000 0.000 -1.296
21 63.00 1200.00 148 336 1.100 10000.000 0.000 -1.296
22 66.00 1200.00 137 348 1.100 10000.000 0.000 -1.296
23 69.00 1200.00 149 357 1.100 10000.000 0.000 -1.296
24 72.00 1200.00 157 337 1.100 10000.000 0.000 -1.296
25 75.00 1200.00 130 324 1.100 10000.000 0.000 -1.296
26 78.00 1200.00 131 345 1.100 10000.000 0.000 -1.296
27 81.00 1200.00 131 310 1.100 10000.000 0.000 -1.296
28 84.00 1200.00 136 329 1.100 10000.000 0.000 -1.296
29 87.00 1200.00 113 336 1.100 10000.000 0.000 -1.296
30 90.00 1200.00 131 334 1.100 10000.000 0.000 -1.296
31 93.00 1200.00 124 283 1.100 10000.000 0.000 -1.296
32 96.00 1200.00 119 303 1.100 10000.000 0.000 -1.296
33 99.00 1200.00 147 316 1.100 10000.000 0.000 -1.296
34 102.00 1200.00 137 319 1.100 10000.000 0.000 -1.296
35 105.00 1200.00 127 322 1.100 10000.000 0.000 -1.296
36 108.00 1200.00 157 343 1.100 10000.000 0.000 -1.296
37 111.00 1200.00 127 333 1.100 10000.000 0.000 -1.296
38 114.00 1200.00 133 349 1.100 10000.000 0.000 -1.296
39 117.00 1200.00 133 342 1.100 10000.000 0.000 -1.296
40 120.00 1200.00 127 369 1.100 10000.000 0.000 -1.296
41 123.00 1200.00 134 330 1.100 10000.000 0.000 -1.296
42 126.00 1200.00 141 351 1.100 10000.000 0.000 -1.296
43 129.00 1200.00 133 353 1.100 10000.000 0.000 -1.296
44 132.00 1200.00 133 329 1.100 10000.000 0.000 -1.296
45 135.00 1200.00 140 328 1.100 10000.000 0.000 -1.296
46 138.00 1200.00 127 279 1.100 10000.000 0.000 -1.296
47 141.00 1200.00 120 344 1.100 10000.000 0.000 -1.296
48 144.00 1200.00 140 325 1.100 10000.000 0.000 -1.296
49 147.00 1200.00 136 351 1.100 10000.000 0.000 -1.296
50 150.00 1200.00 167 340 1.100 10000.000 0.000 -1.296
51 153.00 1200.00 126 318 1.100 10000.000 0.000 -1.296
52 156.00 1200.00 122 330 1.100 10000.000 0.000 -1.296
53 159.00 1200.00 142 342 1.100 10000.000 0.000 -1.296
54 162.00 1200.00 123 332 1.100 10000.000 0.000 -1.296
55 165.00 1200.00 110 329 1.100 10000.000 0.000 -1.296
56 168.00 1200.00 138 351 1.100 10000.000 0.000 -1.296
57 171.00 1200.00 125 319 1.100 10000.000 0.000 -1.296
58 174.00 1200.00 128 321 1.100 10000.000 0.000 -1.296
59 177.00 1200.00 151 336 1.100 10000.000 0.000 -1.296
60 180.00 1200.00 127 341 1.100 10000.000 0.000 -1.296
61 183.00 1200.00 142 337 1.100 10000.000 0.000 -1.296
62 186.00 1200.00 137 337 1.100 10000.000 0.000 -1.296
63 189.00 1200.00 109 351 1.100 10000.000 0.000 -1.296
64 192.00 1200.00 127 287 1.100 10000.000 0.000 -1.296
65 195.00 1200.00 126 291 1.100 10000.000 0.000 -1.296
66 198.00 1200.00 128 330 1.100 10000.000 0.000 -1.296
67 201.00 1200.00 117 314 1.100 10000.000 0.000 -1.296
68 204.00 1200.00 127 332 1.100 10000.000 0.000 -1.296
69 207.00 1200.00 127 324 1.100 10000.000 0.000 -1.296
70 210.00 1200.00 142 324 1.100 10000.000 0.000 -1.296
71 213.00 1200.00 128 324 1.100 10000.000 0.000 -1.296
72 216.00 1200.00 132 345 1.100 10000.000 0.000 -1.296
73 219.00 1200.00 115 323 1.100 10000.000 0.000 -1.296
74 222.00 1200.00 151 343 1.100 10000.000 0.000 -1.296
75 225.00 1200.00 140 373 1.100 10000.000 0.000 -1.296
76 228.00 1200.00 124 336 1.100 10000.000 0.000 -1.296
77 231.00 1200.00 152 330 1.100 10000.000 0.000 -1.296
78 234.00 1200.00 129 351 1.100 10000.000 0.000 -1.296
79 237.00 1200.00 145 336 1.100 10000.000 0.000 -1.296
80 240.00 1200.00 145 347 1.100 10000.000 0.000 -1.296
81 243.00 1200.00 126 319 1.100 10000.000 0.000 -1.296
82 246.00 1200.00 126 319 1.100 10000.000 0.000 -1.296
83 249.00 1200.00 122 353 1.100 10000.000 0.000 -1.296
84 252.00 1200.00 118 349 1.100 10000.000 0.000 -1.296
85 255.00 1200.00 142 351 1.100 10000.000 0.000 -1.296
86 258.00 1200.00 159 343 1.100 10000.000 0.000 -1.296
87 261.00 1200.00 130 321 1.100 10000.000 0.000 -1.296
88 264.00 1200.00 120 343 1.100 10000.000 0.000 -1.296
89 267.00 1200.00 140 317 1.100 10000.000 0.000 -1.296
90 270.00 1200.00 134 365 1.100 10000.000 0.000 -1.296
91 273.00 1200.00 143 319 1.100 10000.000 0.000 -1.296
92 276.00 1200.00 147 343 1.100 10000.000 0.000 -1.296
93 279.00 1200.00 166 305 1.100 10000.000 0.000 -1.296
94 282.00 1200.00 119 301 1.100 10000.000 0.000 -1.296
95 285.00 1200.00 137 312 1.100 10000.000 0.000 -1.296
96 288.00 1200.00 145 288 1.100 10000.000 0.000 -1.296
97 291.00 1200.00 119 294 1.100 10000.000 0.000 -1.296
98 294.00 1200.00 139 307 1.100 10000.000 0.000 -1.296
99 297.00 1200.00 141 317 1.100 10000.000 0.000 -1.296
100 300.00 1200.00 143 303 1.100 10000.000 0.000 -1.296
101 303.00 1200.00 115 302 1.100 10000.000 0.000 -1.296
