# BinNR microsec tot-time (s)  O-Beam AUX Ampl_1(V) f_1(Hz) phase_1(deg) Ampl_2(V) f_2(Hz) phase_2(deg) chi(pos)
0 0.00 1500.02 201 620 0.740 10000.000 0.000 0.610 15000.000 0.000 1.340
1 3.00 1500.02 436 1280 0.740 10000.000 0.000 0.610 15000.000 0.000 1.340
2 6.00 1500.02 425 1230 0.740 10000.000 0.000 0.610 15000.000 0.000 1.340
3 9.00 1500.02 427 1165 0.740 10000.000 0.000 0.610 15000.000 0.000 1.340
4 12.00 1500.02 479 1306 0.740 10000.000 0.000 0.610 15000.000 0.000 1.340
5 15.00 1500.02 461 1188 0.740 10000.000 0.000 0.610 15000.000 0.000 1.340
6 18.00 1500.02 424 1259 0.740 10000.000 0.000 0.610 15000.000 0.000 1.340
7 21.00 1500.02 444 1188 0.740 10000.000 0.000 0.610 15000.000 0.000 1.340
8 24.00 1500.02 433 1323 0.740 10000.000 0.000 0.610 15000.000 0.000 1.340
9 27.00 1500.02 437 1282 0.740 10000.000 0.000 0.610 15000.000 0.000 1.340
10 30.00 1500.02 380 1290 0.740 10000.000 0.000 0.610 15000.000 0.000 1.340
11 33.00 1500.02 405 1285 0.740 10000.000 0.000 0.610 15000.000 0.000 1.340
12 36.00 1500.02 394 1292 0.740 10000.000 0.000 0.610 15000.000 0.000 1.340
13 39.00 1500.02 344 1339 0.740 10000.000 0.000 0.610 15000.000 0.000 1.340
14 42.00 1500.02 405 1256 0.740 10000.000 0.000 0.610 15000.000 0.000 1.340
15 45.00 1500.02 380 1282 0.740 10000.000 0.000 0.610 15000.000 0.000 1.340
16 48.00 1500.02 381 1368 0.740 10000.000 0.000 0.610 15000.000 0.000 1.340
17 51.00 1500.02 367 1233 0.740 10000.000 0.000 0.610 15000.000 0.000 1.340
18 54.00 1500.02 402 1253 0.740 10000.000 0.000 0.610 15000.000 0.000 1.340
19 57.00 1500.02 415 1255 0.740 10000.000 0.000 0.610 15000.000 0.000 1.340
20 60.00 1500.02 402 1199 0.740 10000.000 0.000 0.610 15000.000 0.000 1.340
21 63.00 1500.02 452 1235 0.740 10000.000 0.000 0.610 15000.000 0.000 1.340
22 66.00 1500.02 430 1266 0.740 10000.000 0.000 0.610 15000.000 0.000 1.340
23 69.00 1500.02 417 1270 0.740 10000.000 0.000 0.610 15000.000 0.000 1.340
24 72.00 1500.02 419 1286 0.740 10000.000 0.000 0.610 15000.000 0.000 1.340
25 75.00 1500.02 422 1231 0.740 10000.000 0.000 0.610 15000.000 0.000 1.340
26 78.00 1500.02 447 1222 0.740 10000.000 0.000 0.610 15000.000 0.000 1.340
27 81.00 1500.02 422 1087 0.740 10000.000 0.000 0.610 15000.000 0.000 1.340
28 84.00 1500.02 452 1204 0.740 10000.000 0.000 0.610 15000.000 0.000 1.340
29 87.00 1500.02 456 1173 0.740 10000.000 0.000 0.610 15000.000 0.000 1.340
30 90.00 1500.02 465 1164 0.740 10000.000 0.000 0.610 15000.000 0.000 1.340
31 93.00 1500.02 442 1199 0.740 10000.000 0.000 0.610 15000.000 0.000 1.340
32 96.00 1500.02 428 1259 0.740 10000.000 0.000 0.610 15000.000 0.000 1.340
33 99.00 1500.02 424 1220 0.740 10000.000 0.000 0.610 15000.000 0.000 1.340
34 102.00 1500.02 397 1234 0.740 10000.000 0.000 0.610 15000.000 0.000 1.340
35 105.00 1500.02 448 1224 0.740 10000.000 0.000 0.610 15000.000 0.000 1.340
36 108.00 1500.02 408 1277 0.740 10000.000 0.000 0.610 15000.000 0.000 1.340
37 111.00 1500.02 403 1270 0.740 10000.000 0.000 0.610 15000.000 0.000 1.340
38 114.00 1500.02 391 1292 0.740 10000.000 0.000 0.610 15000.000 0.000 1.340
39 117.00 1500.02 376 1259 0.740 10000.000 0.000 0.610 15000.000 0.000 1.340
40 120.00 1500.02 392 1224 0.740 10000.000 0.000 0.610 15000.000 0.000 1.340
41 123.00 1500.02 399 1263 0.740 10000.000 0.000 0.610 15000.000 0.000 1.340
42 126.00 1500.02 392 1293 0.740 10000.000 0.000 0.610 15000.000 0.000 1.340
43 129.00 1500.02 354 1238 0.740 10000.000 0.000 0.610 15000.000 0.000 1.340
44 132.00 1500.02 379 1317 0.740 10000.000 0.000 0.610 15000.000 0.000 1.340
45 135.00 1500.02 408 1254 0.740 10000.000 0.000 0.610 15000.000 0.000 1.340
46 138.00 1500.02 401 1242 0.740 10000.000 0.000 0.610 15000.000 0.000 1.340
47 141.00 1500.02 413 1263 0.740 10000.000 0.000 0.610 15000.000 0.000 1.340
48 144.00 1500.02 391 1217 0.740 10000.000 0.000 0.610 15000.000 0.000 1.340
49 147.00 1500.02 434 1329 0.740 10000.000 0.000 0.610 15000.000 0.000 1.340
50 150.00 1500.02 421 1189 0.740 10000.000 0.000 0.610 15000.000 0.000 1.340
51 153.00 1500.02 488 1147 0.740 10000.000 0.000 0.610 15000.000 0.000 1.340
52 156.00 1500.02 458 1255 0.740 10000.000 0.000 0.610 15000.000 0.000 1.340
53 159.00 1500.02 410 1281 0.740 10000.000 0.000 0.610 15000.000 0.000 1.340
54 162.00 1500.02 432 1253 0.740 10000.000 0.000 0.610 15000.000 0.000 1.340
55 165.00 1500.02 429 1287 0.740 10000.000 0.000 0.610 15000.000 0.000 1.340
56 168.00 1500.02 456 1227 0.740 10000.000 0.000 0.610 15000.000 0.000 1.340
57 171.00 1500.02 444 1253 0.740 10000.000 0.000 0.610 15000.000 0.000 1.340
58 174.00 1500.02 455 1296 0.740 10000.000 0.000 0.610 15000.000 0.000 1.340
59 177.00 1500.02 440 1294 0.740 10000.000 0.000 0.610 15000.000 0.000 1.340
60 180.00 1500.02 453 1222 0.740 10000.000 0.000 0.610 15000.000 0.000 1.340
61 183.00 1500.02 444 1201 0.740 10000.000 0.000 0.610 15000.000 0.000 1.340
62 186.00 1500.02 442 1253 0.740 10000.000 0.000 0.610 15000.000 0.000 1.340
63 189.00 1500.02 406 1184 0.740 10000.000 0.000 0.610 15000.000 0.000 1.340
64 192.00 1500.02 429 1296 0.740 10000.000 0.000 0.610 15000.000 0.000 1.340
65 195.00 1500.02 434 1202 0.740 10000.000 0.000 0.610 15000.000 0.000 1.340
66 198.00 1500.02 465 1231 0.740 10000.000 0.000 0.610 15000.000 0.000 1.340
67 201.00 1500.02 465 1200 0.740 10000.000 0.000 0.610 15000.000 0.000 1.340
68 204.00 1500.02 452 1192 0.740 10000.000 0.000 0.610 15000.000 0.000 1.340
69 207.00 1500.02 413 1181 0.740 10000.000 0.000 0.610 15000.000 0.000 1.340
70 210.00 1500.02 428 1114 0.740 10000.000 0.000 0.610 15000.000 0.000 1.340
71 213.00 1500.02 439 1105 0.740 10000.000 0.000 0.610 15000.000 0.000 1.340
72 216.00 1500.02 422 1226 0.740 10000.000 0.000 0.610 15000.000 0.000 1.340
73 219.00 1500.02 431 1192 0.740 10000.000 0.000 0.610 15000.000 0.000 1.340
74 222.00 1500.02 456 1270 0.740 10000.000 0.000 0.610 15000.000 0.000 1.340
75 225.00 1500.02 418 1255 0.740 10000.000 0.000 0.610 15000.000 0.000 1.340
76 228.00 1500.02 410 1218 0.740 10000.000 0.000 0.610 15000.000 0.000 1.340
77 231.00 1500.02 415 1285 0.740 10000.000 0.000 0.610 15000.000 0.000 1.340
78 234.00 1500.02 413 1192 0.740 10000.000 0.000 0.610 15000.000 0.000 1.340
79 237.00 1500.02 407 1249 0.740 10000.000 0.000 0.610 15000.000 0.000 1.340
80 240.00 1500.02 372 1175 0.740 10000.000 0.000 0.610 15000.000 0.000 1.340
81 243.00 1500.02 385 1175 0.740 10000.000 0.000 0.610 15000.000 0.000 1.340
82 246.00 1500.02 379 1191 0.740 10000.000 0.000 0.610 15000.000 0.000 1.340
83 249.00 1500.02 403 1100 0.740 10000.000 0.000 0.610 15000.000 0.000 1.340
84 252.00 1500.02 399 1219 0.740 10000.000 0.000 0.610 15000.000 0.000 1.340
85 255.00 1500.02 404 1187 0.740 10000.000 0.000 0.610 15000.000 0.000 1.340
86 258.00 1500.02 445 1219 0.740 10000.000 0.000 0.610 15000.000 0.000 1.340
87 261.00 1500.02 414 1208 0.740 10000.000 0.000 0.610 15000.000 0.000 1.340
88 264.00 1500.02 416 1298 0.740 10000.000 0.000 0.610 15000.000 0.000 1.340
89 267.00 1500.02 410 1310 0.740 10000.000 0.000 0.610 15000.000 0.000 1.340
90 270.00 1500.02 420 1260 0.740 10000.000 0.000 0.610 15000.000 0.000 1.340
91 273.00 1500.02 411 1284 0.740 10000.000 0.000 0.610 15000.000 0.000 1.340
92 276.00 1500.02 419 1278 0.740 10000.000 0.000 0.610 15000.000 0.000 1.340
93 279.00 1500.02 454 1197 0.740 10000.000 0.000 0.610 15000.000 0.000 1.340
94 282.00 1500.02 450 1200 0.740 10000.000 0.000 0.610 15000.000 0.000 1.340
95 285.00 1500.02 436 1211 0.740 10000.000 0.000 0.610 15000.000 0.000 1.340
96 288.00 1500.02 509 1198 0.740 10000.000 0.000 0.610 15000.000 0.000 1.340
97 291.00 1500.02 373 1143 0.740 10000.000 0.000 0.610 15000.000 0.000 1.340
98 294.00 1500.02 433 1218 0.740 10000.000 0.000 0.610 15000.000 0.000 1.340
99 297.00 1500.02 395 1214 0.740 10000.000 0.000 0.610 15000.000 0.000 1.340
100 300.00 1500.02 429 1302 0.740 10000.000 0.000 0.610 15000.000 0.000 1.340
101 303.00 1500.02 426 1240 0.740 10000.000 0.000 0.610 15000.000 0.000 1.340
102 306.00 1500.02 435 1291 0.740 10000.000 0.000 0.610 15000.000 0.000 1.340
103 309.00 1500.02 394 1281 0.740 10000.000 0.000 0.610 15000.000 0.000 1.340
104 312.00 1500.02 447 1293 0.740 10000.000 0.000 0.610 15000.000 0.000 1.340
105 315.00 1500.02 450 1320 0.740 10000.000 0.000 0.610 15000.000 0.000 1.340
106 318.00 1500.02 456 1290 0.740 10000.000 0.000 0.610 15000.000 0.000 1.340
107 321.00 1500.02 464 1253 0.740 10000.000 0.000 0.610 15000.000 0.000 1.340
108 324.00 1500.02 499 1215 0.740 10000.000 0.000 0.610 15000.000 0.000 1.340
109 327.00 1500.02 422 1210 0.740 10000.000 0.000 0.610 15000.000 0.000 1.340
110 330.00 1500.02 410 1303 0.740 10000.000 0.000 0.610 15000.000 0.000 1.340
111 333.00 1500.02 431 1303 0.740 10000.000 0.000 0.610 15000.000 0.000 1.340
112 336.00 1500.02 435 1280 0.740 10000.000 0.000 0.610 15000.000 0.000 1.340
113 339.00 1500.02 452 1273 0.740 10000.000 0.000 0.610 15000.000 0.000 1.340
114 342.00 1500.02 429 1260 0.740 10000.000 0.000 0.610 15000.000 0.000 1.340
115 345.00 1500.02 411 1201 0.740 10000.000 0.000 0.610 15000.000 0.000 1.340
116 348.00 1500.02 389 1218 0.740 10000.000 0.000 0.610 15000.000 0.000 1.340
117 351.00 1500.02 368 1237 0.740 10000.000 0.000 0.610 15000.000 0.000 1.340
118 354.00 1500.02 417 1273 0.740 10000.000 0.000 0.610 15000.000 0.000 1.340
119 357.00 1500.02 372 1223 0.740 10000.000 0.000 0.610 15000.000 0.000 1.340
120 360.00 1500.02 351 1288 0.740 10000.000 0.000 0.610 15000.000 0.000 1.340
121 363.00 1500.02 346 1254 0.740 10000.000 0.000 0.610 15000.000 0.000 1.340
122 366.00 1500.02 474 1279 0.740 10000.000 0.000 0.610 15000.000 0.000 1.340
123 369.00 1500.02 407 1283 0.740 10000.000 0.000 0.610 15000.000 0.000 1.340
124 372.00 1500.02 415 1285 0.740 10000.000 0.000 0.610 15000.000 0.000 1.340
125 375.00 1500.02 426 1279 0.740 10000.000 0.000 0.610 15000.000 0.000 1.340
126 378.00 1500.02 419 1284 0.740 10000.000 0.000 0.610 15000.000 0.000 1.340
127 381.00 1500.02 432 1319 0.740 10000.000 0.000 0.610 15000.000 0.000 1.340
128 384.00 1500.02 411 1244 0.740 10000.000 0.000 0.610 15000.000 0.000 1.340
129 387.00 1500.02 419 1236 0.740 10000.000 0.000 0.610 15000.000 0.000 1.340
130 390.00 1500.02 437 1343 0.740 10000.000 0.000 0.610 15000.000 0.000 1.340
131 393.00 1500.02 438 1250 0.740 10000.000 0.000 0.610 15000.000 0.000 1.340
132 396.00 1500.02 468 1241 0.740 10000.000 0.000 0.610 15000.000 0.000 1.340
133 399.00 1500.02 402 1192 0.740 10000.000 0.000 0.610 15000.000 0.000 1.340
134 402.00 1500.02 436 1210 0.740 10000.000 0.000 0.610 15000.000 0.000 1.340
135 405.00 1500.02 440 1166 0.740 10000.000 0.000 0.610 15000.000 0.000 1.340
136 408.00 1500.02 458 1133 0.740 10000.000 0.000 0.610 15000.000 0.000 1.340
137 411.00 1500.02 397 1162 0.740 10000.000 0.000 0.610 15000.000 0.000 1.340
138 414.00 1500.02 414 1180 0.740 10000.000 0.000 0.610 15000.000 0.000 1.340
139 417.00 1500.02 458 1196 0.740 10000.000 0.000 0.610 15000.000 0.000 1.340
140 420.00 1500.02 413 1206 0.740 10000.000 0.000 0.610 15000.000 0.000 1.340
141 423.00 1500.02 413 1208 0.740 10000.000 0.000 0.610 15000.000 0.000 1.340
142 426.00 1500.02 412 1281 0.740 10000.000 0.000 0.610 15000.000 0.000 1.340
143 429.00 1500.02 461 1222 0.740 10000.000 0.000 0.610 15000.000 0.000 1.340
144 432.00 1500.02 430 1262 0.740 10000.000 0.000 0.610 15000.000 0.000 1.340
