# BinNR microsec tot-time (s)  O-Beam AUX Ampl_1(V) f_1(Hz) phase_1(deg) Ampl_2(V) f_2(Hz) phase_2(deg) chi(pos)
0 0.00 1500.00 202 656 0.740 10000.000 0.000 0.610 15000.000 0.000 -0.835
1 3.00 1500.00 379 1262 0.740 10000.000 0.000 0.610 15000.000 0.000 -0.835
2 6.00 1500.00 422 1253 0.740 10000.000 0.000 0.610 15000.000 0.000 -0.835
3 9.00 1500.00 434 1294 0.740 10000.000 0.000 0.610 15000.000 0.000 -0.835
4 12.00 1500.00 402 1318 0.740 10000.000 0.000 0.610 15000.000 0.000 -0.835
5 15.00 1500.00 428 1294 0.740 10000.000 0.000 0.610 15000.000 0.000 -0.835
6 18.00 1500.00 397 1278 0.740 10000.000 0.000 0.610 15000.000 0.000 -0.835
7 21.00 1500.00 358 1254 0.740 10000.000 0.000 0.610 15000.000 0.000 -0.835
8 24.00 1500.00 385 1202 0.740 10000.000 0.000 0.610 15000.000 0.000 -0.835
9 27.00 1500.00 358 1221 0.740 10000.000 0.000 0.610 15000.000 0.000 -0.835
10 30.00 1500.00 387 1157 0.740 10000.000 0.000 0.610 15000.000 0.000 -0.835
11 33.00 1500.00 338 1132 0.740 10000.000 0.000 0.610 15000.000 0.000 -0.835
12 36.00 1500.00 338 1161 0.740 10000.000 0.000 0.610 15000.000 0.000 -0.835
13 39.00 1500.00 312 1145 0.740 10000.000 0.000 0.610 15000.000 0.000 -0.835
14 42.00 1500.00 321 1262 0.740 10000.000 0.000 0.610 15000.000 0.000 -0.835
15 45.00 1500.00 312 1170 0.740 10000.000 0.000 0.610 15000.000 0.000 -0.835
16 48.00 1500.00 302 1225 0.740 10000.000 0.000 0.610 15000.000 0.000 -0.835
17 51.00 1500.00 363 1188 0.740 10000.000 0.000 0.610 15000.000 0.000 -0.835
18 54.00 1500.00 350 1256 0.740 10000.000 0.000 0.610 15000.000 0.000 -0.835
19 57.00 1500.00 350 1232 0.740 10000.000 0.000 0.610 15000.000 0.000 -0.835
20 60.00 1500.00 389 1230 0.740 10000.000 0.000 0.610 15000.000 0.000 -0.835
21 63.00 1500.00 387 1257 0.740 10000.000 0.000 0.610 15000.000 0.000 -0.835
22 66.00 1500.00 428 1318 0.740 10000.000 0.000 0.610 15000.000 0.000 -0.835
23 69.00 1500.00 394 1212 0.740 10000.000 0.000 0.610 15000.000 0.000 -0.835
24 72.00 1500.00 439 1160 0.740 10000.000 0.000 0.610 15000.000 0.000 -0.835
25 75.00 1500.00 381 1067 0.740 10000.000 0.000 0.610 15000.000 0.000 -0.835
26 78.00 1500.00 410 1089 0.740 10000.000 0.000 0.610 15000.000 0.000 -0.835
27 81.00 1500.00 403 1041 0.740 10000.000 0.000 0.610 15000.000 0.000 -0.835
28 84.00 1500.00 421 997 0.740 10000.000 0.000 0.610 15000.000 0.000 -0.835
29 87.00 1500.00 441 967 0.740 10000.000 0.000 0.610 15000.000 0.000 -0.835
30 90.00 1500.00 441 1078 0.740 10000.000 0.000 0.610 15000.000 0.000 -0.835
31 93.00 1500.00 414 1060 0.740 10000.000 0.000 0.610 15000.000 0.000 -0.835
32 96.00 1500.00 440 1139 0.740 10000.000 0.000 0.610 15000.000 0.000 -0.835
33 99.00 1500.00 429 1114 0.740 10000.000 0.000 0.610 15000.000 0.000 -0.835
34 102.00 1500.00 393 1135 0.740 10000.000 0.000 0.610 15000.000 0.000 -0.835
35 105.00 1500.00 374 1170 0.740 10000.000 0.000 0.610 15000.000 0.000 -0.835
36 108.00 1500.00 379 1212 0.740 10000.000 0.000 0.610 15000.000 0.000 -0.835
37 111.00 1500.00 351 1230 0.740 10000.000 0.000 0.610 15000.000 0.000 -0.835
38 114.00 1500.00 333 1268 0.740 10000.000 0.000 0.610 15000.000 0.000 -0.835
39 117.00 1500.00 326 1221 0.740 10000.000 0.000 0.610 15000.000 0.000 -0.835
40 120.00 1500.00 287 1179 0.740 10000.000 0.000 0.610 15000.000 0.000 -0.835
41 123.00 1500.00 321 1259 0.740 10000.000 0.000 0.610 15000.000 0.000 -0.835
42 126.00 1500.00 303 1240 0.740 10000.000 0.000 0.610 15000.000 0.000 -0.835
43 129.00 1500.00 317 1205 0.740 10000.000 0.000 0.610 15000.000 0.000 -0.835
44 132.00 1500.00 355 1214 0.740 10000.000 0.000 0.610 15000.000 0.000 -0.835
45 135.00 1500.00 341 1269 0.740 10000.000 0.000 0.610 15000.000 0.000 -0.835
46 138.00 1500.00 325 1140 0.740 10000.000 0.000 0.610 15000.000 0.000 -0.835
47 141.00 1500.00 371 1137 0.740 10000.000 0.000 0.610 15000.000 0.000 -0.835
48 144.00 1500.00 436 1152 0.740 10000.000 0.000 0.610 15000.000 0.000 -0.835
49 147.00 1500.00 410 1219 0.740 10000.000 0.000 0.610 15000.000 0.000 -0.835
50 150.00 1500.00 389 1239 0.740 10000.000 0.000 0.610 15000.000 0.000 -0.835
51 153.00 1500.00 401 1191 0.740 10000.000 0.000 0.610 15000.000 0.000 -0.835
52 156.00 1500.00 373 1256 0.740 10000.000 0.000 0.610 15000.000 0.000 -0.835
53 159.00 1500.00 379 1224 0.740 10000.000 0.000 0.610 15000.000 0.000 -0.835
54 162.00 1500.00 409 1190 0.740 10000.000 0.000 0.610 15000.000 0.000 -0.835
55 165.00 1500.00 404 1265 0.740 10000.000 0.000 0.610 15000.000 0.000 -0.835
56 168.00 1500.00 408 1237 0.740 10000.000 0.000 0.610 15000.000 0.000 -0.835
57 171.00 1500.00 405 1218 0.740 10000.000 0.000 0.610 15000.000 0.000 -0.835
58 174.00 1500.00 423 1273 0.740 10000.000 0.000 0.610 15000.000 0.000 -0.835
59 177.00 1500.00 397 1236 0.740 10000.000 0.000 0.610 15000.000 0.000 -0.835
60 180.00 1500.00 379 1190 0.740 10000.000 0.000 0.610 15000.000 0.000 -0.835
61 183.00 1500.00 386 1151 0.740 10000.000 0.000 0.610 15000.000 0.000 -0.835
62 186.00 1500.00 376 1212 0.740 10000.000 0.000 0.610 15000.000 0.000 -0.835
63 189.00 1500.00 408 1109 0.740 10000.000 0.000 0.610 15000.000 0.000 -0.835
64 192.00 1500.00 405 1144 0.740 10000.000 0.000 0.610 15000.000 0.000 -0.835
65 195.00 1500.00 360 1105 0.740 10000.000 0.000 0.610 15000.000 0.000 -0.835
66 198.00 1500.00 417 1109 0.740 10000.000 0.000 0.610 15000.000 0.000 -0.835
67 201.00 1500.00 425 1012 0.740 10000.000 0.000 0.610 15000.000 0.000 -0.835
68 204.00 1500.00 421 972 0.740 10000.000 0.000 0.610 15000.000 0.000 -0.835
69 207.00 1500.00 408 1038 0.740 10000.000 0.000 0.610 15000.000 0.000 -0.835
70 210.00 1500.00 412 990 0.740 10000.000 0.000 0.610 15000.000 0.000 -0.835
71 213.00 1500.00 418 1029 0.740 10000.000 0.000 0.610 15000.000 0.000 -0.835
72 216.00 1500.00 391 975 0.740 10000.000 0.000 0.610 15000.000 0.000 -0.835
73 219.00 1500.00 383 1079 0.740 10000.000 0.000 0.610 15000.000 0.000 -0.835
74 222.00 1500.00 408 1173 0.740 10000.000 0.000 0.610 15000.000 0.000 -0.835
75 225.00 1500.00 371 1166 0.740 10000.000 0.000 0.610 15000.000 0.000 -0.835
76 228.00 1500.00 398 1242 0.740 10000.000 0.000 0.610 15000.000 0.000 -0.835
77 231.00 1500.00 345 1244 0.740 10000.000 0.000 0.610 15000.000 0.000 -0.835
78 234.00 1500.00 320 1188 0.740 10000.000 0.000 0.610 15000.000 0.000 -0.835
79 237.00 1500.00 324 1309 0.740 10000.000 0.000 0.610 15000.000 0.000 -0.835
80 240.00 1500.00 296 1239 0.740 10000.000 0.000 0.610 15000.000 0.000 -0.835
81 243.00 1500.00 314 1254 0.740 10000.000 0.000 0.610 15000.000 0.000 -0.835
82 246.00 1500.00 317 1252 0.740 10000.000 0.000 0.610 15000.000 0.000 -0.835
83 249.00 1500.00 314 1266 0.740 10000.000 0.000 0.610 15000.000 0.000 -0.835
84 252.00 1500.00 362 1303 0.740 10000.000 0.000 0.610 15000.000 0.000 -0.835
85 255.00 1500.00 357 1278 0.740 10000.000 0.000 0.610 15000.000 0.000 -0.835
86 258.00 1500.00 335 1261 0.740 10000.000 0.000 0.610 15000.000 0.000 -0.835
87 261.00 1500.00 366 1184 0.740 10000.000 0.000 0.610 15000.000 0.000 -0.835
88 264.00 1500.00 376 1222 0.740 10000.000 0.000 0.610 15000.000 0.000 -0.835
89 267.00 1500.00 386 1221 0.740 10000.000 0.000 0.610 15000.000 0.000 -0.835
90 270.00 1500.00 412 1165 0.740 10000.000 0.000 0.610 15000.000 0.000 -0.835
91 273.00 1500.00 412 1121 0.740 10000.000 0.000 0.610 15000.000 0.000 -0.835
92 276.00 1500.00 431 1055 0.740 10000.000 0.000 0.610 15000.000 0.000 -0.835
93 279.00 1500.00 401 988 0.740 10000.000 0.000 0.610 15000.000 0.000 -0.835
94 282.00 1500.00 441 1037 0.740 10000.000 0.000 0.610 15000.000 0.000 -0.835
95 285.00 1500.00 440 1003 0.740 10000.000 0.000 0.610 15000.000 0.000 -0.835
96 288.00 1500.00 430 967 0.740 10000.000 0.000 0.610 15000.000 0.000 -0.835
97 291.00 1500.00 430 1035 0.740 10000.000 0.000 0.610 15000.000 0.000 -0.835
98 294.00 1500.00 372 1036 0.740 10000.000 0.000 0.610 15000.000 0.000 -0.835
99 297.00 1500.00 438 959 0.740 10000.000 0.000 0.610 15000.000 0.000 -0.835
100 300.00 1500.00 352 1098 0.740 10000.000 0.000 0.610 15000.000 0.000 -0.835
101 303.00 1500.00 405 1151 0.740 10000.000 0.000 0.610 15000.000 0.000 -0.835
102 306.00 1500.00 398 1182 0.740 10000.000 0.000 0.610 15000.000 0.000 -0.835
103 309.00 1500.00 379 1253 0.740 10000.000 0.000 0.610 15000.000 0.000 -0.835
104 312.00 1500.00 394 1288 0.740 10000.000 0.000 0.610 15000.000 0.000 -0.835
105 315.00 1500.00 396 1258 0.740 10000.000 0.000 0.610 15000.000 0.000 -0.835
106 318.00 1500.00 401 1256 0.740 10000.000 0.000 0.610 15000.000 0.000 -0.835
107 321.00 1500.00 426 1267 0.740 10000.000 0.000 0.610 15000.000 0.000 -0.835
108 324.00 1500.00 460 1233 0.740 10000.000 0.000 0.610 15000.000 0.000 -0.835
109 327.00 1500.00 427 1221 0.740 10000.000 0.000 0.610 15000.000 0.000 -0.835
110 330.00 1500.00 462 1245 0.740 10000.000 0.000 0.610 15000.000 0.000 -0.835
111 333.00 1500.00 427 1187 0.740 10000.000 0.000 0.610 15000.000 0.000 -0.835
112 336.00 1500.00 396 1285 0.740 10000.000 0.000 0.610 15000.000 0.000 -0.835
113 339.00 1500.00 408 1290 0.740 10000.000 0.000 0.610 15000.000 0.000 -0.835
114 342.00 1500.00 412 1240 0.740 10000.000 0.000 0.610 15000.000 0.000 -0.835
115 345.00 1500.00 359 1217 0.740 10000.000 0.000 0.610 15000.000 0.000 -0.835
116 348.00 1500.00 343 1184 0.740 10000.000 0.000 0.610 15000.000 0.000 -0.835
117 351.00 1500.00 338 1219 0.740 10000.000 0.000 0.610 15000.000 0.000 -0.835
118 354.00 1500.00 357 1183 0.740 10000.000 0.000 0.610 15000.000 0.000 -0.835
119 357.00 1500.00 327 1223 0.740 10000.000 0.000 0.610 15000.000 0.000 -0.835
120 360.00 1500.00 333 1259 0.740 10000.000 0.000 0.610 15000.000 0.000 -0.835
121 363.00 1500.00 320 1241 0.740 10000.000 0.000 0.610 15000.000 0.000 -0.835
122 366.00 1500.00 334 1248 0.740 10000.000 0.000 0.610 15000.000 0.000 -0.835
123 369.00 1500.00 339 1228 0.740 10000.000 0.000 0.610 15000.000 0.000 -0.835
124 372.00 1500.00 363 1263 0.740 10000.000 0.000 0.610 15000.000 0.000 -0.835
125 375.00 1500.00 359 1240 0.740 10000.000 0.000 0.610 15000.000 0.000 -0.835
126 378.00 1500.00 391 1263 0.740 10000.000 0.000 0.610 15000.000 0.000 -0.835
127 381.00 1500.00 410 1221 0.740 10000.000 0.000 0.610 15000.000 0.000 -0.835
128 384.00 1500.00 411 1249 0.740 10000.000 0.000 0.610 15000.000 0.000 -0.835
129 387.00 1500.00 423 1201 0.740 10000.000 0.000 0.610 15000.000 0.000 -0.835
130 390.00 1500.00 426 1197 0.740 10000.000 0.000 0.610 15000.000 0.000 -0.835
131 393.00 1500.00 431 1078 0.740 10000.000 0.000 0.610 15000.000 0.000 -0.835
132 396.00 1500.00 423 1110 0.740 10000.000 0.000 0.610 15000.000 0.000 -0.835
133 399.00 1500.00 401 1083 0.740 10000.000 0.000 0.610 15000.000 0.000 -0.835
134 402.00 1500.00 380 1013 0.740 10000.000 0.000 0.610 15000.000 0.000 -0.835
135 405.00 1500.00 392 1037 0.740 10000.000 0.000 0.610 15000.000 0.000 -0.835
136 408.00 1500.00 416 1008 0.740 10000.000 0.000 0.610 15000.000 0.000 -0.835
137 411.00 1500.00 422 963 0.740 10000.000 0.000 0.610 15000.000 0.000 -0.835
138 414.00 1500.00 406 1027 0.740 10000.000 0.000 0.610 15000.000 0.000 -0.835
139 417.00 1500.00 404 1048 0.740 10000.000 0.000 0.610 15000.000 0.000 -0.835
140 420.00 1500.00 389 1107 0.740 10000.000 0.000 0.610 15000.000 0.000 -0.835
141 423.00 1500.00 373 1143 0.740 10000.000 0.000 0.610 15000.000 0.000 -0.835
142 426.00 1500.00 397 1196 0.740 10000.000 0.000 0.610 15000.000 0.000 -0.835
143 429.00 1500.00 414 1176 0.740 10000.000 0.000 0.610 15000.000 0.000 -0.835
144 432.00 1500.00 387 1252 0.740 10000.000 0.000 0.610 15000.000 0.000 -0.835
