# BinNR microsec tot-time (s)  O-Beam AUX Ampl_1(V) f_1(Hz) phase_1(deg) Ampl_2(V) f_2(Hz) phase_2(deg) chi(pos)
0 0.00 1500.00 171 602 0.740 10000.000 0.000 0.610 15000.000 0.000 -1.000
1 3.00 1500.00 326 1172 0.740 10000.000 0.000 0.610 15000.000 0.000 -1.000
2 6.00 1500.00 348 1265 0.740 10000.000 0.000 0.610 15000.000 0.000 -1.000
3 9.00 1500.00 337 1110 0.740 10000.000 0.000 0.610 15000.000 0.000 -1.000
4 12.00 1500.00 346 1238 0.740 10000.000 0.000 0.610 15000.000 0.000 -1.000
5 15.00 1500.00 318 1132 0.740 10000.000 0.000 0.610 15000.000 0.000 -1.000
6 18.00 1500.00 344 1124 0.740 10000.000 0.000 0.610 15000.000 0.000 -1.000
7 21.00 1500.00 292 1058 0.740 10000.000 0.000 0.610 15000.000 0.000 -1.000
8 24.00 1500.00 298 1068 0.740 10000.000 0.000 0.610 15000.000 0.000 -1.000
9 27.00 1500.00 289 1017 0.740 10000.000 0.000 0.610 15000.000 0.000 -1.000
10 30.00 1500.00 290 1035 0.740 10000.000 0.000 0.610 15000.000 0.000 -1.000
11 33.00 1500.00 289 934 0.740 10000.000 0.000 0.610 15000.000 0.000 -1.000
12 36.00 1500.00 260 1041 0.740 10000.000 0.000 0.610 15000.000 0.000 -1.000
13 39.00 1500.00 257 985 0.740 10000.000 0.000 0.610 15000.000 0.000 -1.000
14 42.00 1500.00 262 1036 0.740 10000.000 0.000 0.610 15000.000 0.000 -1.000
15 45.00 1500.00 262 1037 0.740 10000.000 0.000 0.610 15000.000 0.000 -1.000
16 48.00 1500.00 217 1120 0.740 10000.000 0.000 0.610 15000.000 0.000 -1.000
17 51.00 1500.00 252 1131 0.740 10000.000 0.000 0.610 15000.000 0.000 -1.000
18 54.00 1500.00 256 1224 0.740 10000.000 0.000 0.610 15000.000 0.000 -1.000
19 57.00 1500.00 258 1172 0.740 10000.000 0.000 0.610 15000.000 0.000 -1.000
20 60.00 1500.00 279 1170 0.740 10000.000 0.000 0.610 15000.000 0.000 -1.000
21 63.00 1500.00 323 1163 0.740 10000.000 0.000 0.610 15000.000 0.000 -1.000
22 66.00 1500.00 311 1135 0.740 10000.000 0.000 0.610 15000.000 0.000 -1.000
23 69.00 1500.00 322 1045 0.740 10000.000 0.000 0.610 15000.000 0.000 -1.000
24 72.00 1500.00 344 954 0.740 10000.000 0.000 0.610 15000.000 0.000 -1.000
25 75.00 1500.00 349 858 0.740 10000.000 0.000 0.610 15000.000 0.000 -1.000
26 78.00 1500.00 364 820 0.740 10000.000 0.000 0.610 15000.000 0.000 -1.000
27 81.00 1500.00 442 772 0.740 10000.000 0.000 0.610 15000.000 0.000 -1.000
28 84.00 1500.00 389 730 0.740 10000.000 0.000 0.610 15000.000 0.000 -1.000
29 87.00 1500.00 398 757 0.740 10000.000 0.000 0.610 15000.000 0.000 -1.000
30 90.00 1500.00 399 744 0.740 10000.000 0.000 0.610 15000.000 0.000 -1.000
31 93.00 1500.00 359 765 0.740 10000.000 0.000 0.610 15000.000 0.000 -1.000
32 96.00 1500.00 365 846 0.740 10000.000 0.000 0.610 15000.000 0.000 -1.000
33 99.00 1500.00 362 905 0.740 10000.000 0.000 0.610 15000.000 0.000 -1.000
34 102.00 1500.00 347 934 0.740 10000.000 0.000 0.610 15000.000 0.000 -1.000
35 105.00 1500.00 328 996 0.740 10000.000 0.000 0.610 15000.000 0.000 -1.000
36 108.00 1500.00 279 1124 0.740 10000.000 0.000 0.610 15000.000 0.000 -1.000
37 111.00 1500.00 286 1021 0.740 10000.000 0.000 0.610 15000.000 0.000 -1.000
38 114.00 1500.00 281 1119 0.740 10000.000 0.000 0.610 15000.000 0.000 -1.000
39 117.00 1500.00 241 1107 0.740 10000.000 0.000 0.610 15000.000 0.000 -1.000
40 120.00 1500.00 264 1113 0.740 10000.000 0.000 0.610 15000.000 0.000 -1.000
41 123.00 1500.00 258 1120 0.740 10000.000 0.000 0.610 15000.000 0.000 -1.000
42 126.00 1500.00 244 1152 0.740 10000.000 0.000 0.610 15000.000 0.000 -1.000
43 129.00 1500.00 255 1083 0.740 10000.000 0.000 0.610 15000.000 0.000 -1.000
44 132.00 1500.00 255 1102 0.740 10000.000 0.000 0.610 15000.000 0.000 -1.000
45 135.00 1500.00 275 1126 0.740 10000.000 0.000 0.610 15000.000 0.000 -1.000
46 138.00 1500.00 253 1037 0.740 10000.000 0.000 0.610 15000.000 0.000 -1.000
47 141.00 1500.00 299 1024 0.740 10000.000 0.000 0.610 15000.000 0.000 -1.000
48 144.00 1500.00 320 1080 0.740 10000.000 0.000 0.610 15000.000 0.000 -1.000
49 147.00 1500.00 306 974 0.740 10000.000 0.000 0.610 15000.000 0.000 -1.000
50 150.00 1500.00 325 1105 0.740 10000.000 0.000 0.610 15000.000 0.000 -1.000
51 153.00 1500.00 327 983 0.740 10000.000 0.000 0.610 15000.000 0.000 -1.000
52 156.00 1500.00 329 1044 0.740 10000.000 0.000 0.610 15000.000 0.000 -1.000
53 159.00 1500.00 337 1028 0.740 10000.000 0.000 0.610 15000.000 0.000 -1.000
54 162.00 1500.00 314 1081 0.740 10000.000 0.000 0.610 15000.000 0.000 -1.000
55 165.00 1500.00 332 1098 0.740 10000.000 0.000 0.610 15000.000 0.000 -1.000
56 168.00 1500.00 307 1103 0.740 10000.000 0.000 0.610 15000.000 0.000 -1.000
57 171.00 1500.00 322 1152 0.740 10000.000 0.000 0.610 15000.000 0.000 -1.000
58 174.00 1500.00 296 1202 0.740 10000.000 0.000 0.610 15000.000 0.000 -1.000
59 177.00 1500.00 329 1139 0.740 10000.000 0.000 0.610 15000.000 0.000 -1.000
60 180.00 1500.00 336 1154 0.740 10000.000 0.000 0.610 15000.000 0.000 -1.000
61 183.00 1500.00 303 1095 0.740 10000.000 0.000 0.610 15000.000 0.000 -1.000
62 186.00 1500.00 310 1071 0.740 10000.000 0.000 0.610 15000.000 0.000 -1.000
63 189.00 1500.00 311 1074 0.740 10000.000 0.000 0.610 15000.000 0.000 -1.000
64 192.00 1500.00 313 918 0.740 10000.000 0.000 0.610 15000.000 0.000 -1.000
65 195.00 1500.00 343 937 0.740 10000.000 0.000 0.610 15000.000 0.000 -1.000
66 198.00 1500.00 354 848 0.740 10000.000 0.000 0.610 15000.000 0.000 -1.000
67 201.00 1500.00 310 813 0.740 10000.000 0.000 0.610 15000.000 0.000 -1.000
68 204.00 1500.00 337 798 0.740 10000.000 0.000 0.610 15000.000 0.000 -1.000
69 207.00 1500.00 358 728 0.740 10000.000 0.000 0.610 15000.000 0.000 -1.000
70 210.00 1500.00 340 726 0.740 10000.000 0.000 0.610 15000.000 0.000 -1.000
71 213.00 1500.00 365 730 0.740 10000.000 0.000 0.610 15000.000 0.000 -1.000
72 216.00 1500.00 308 809 0.740 10000.000 0.000 0.610 15000.000 0.000 -1.000
73 219.00 1500.00 310 811 0.740 10000.000 0.000 0.610 15000.000 0.000 -1.000
74 222.00 1500.00 327 915 0.740 10000.000 0.000 0.610 15000.000 0.000 -1.000
75 225.00 1500.00 316 969 0.740 10000.000 0.000 0.610 15000.000 0.000 -1.000
76 228.00 1500.00 289 1040 0.740 10000.000 0.000 0.610 15000.000 0.000 -1.000
77 231.00 1500.00 265 1063 0.740 10000.000 0.000 0.610 15000.000 0.000 -1.000
78 234.00 1500.00 285 1140 0.740 10000.000 0.000 0.610 15000.000 0.000 -1.000
79 237.00 1500.00 255 1125 0.740 10000.000 0.000 0.610 15000.000 0.000 -1.000
80 240.00 1500.00 245 1224 0.740 10000.000 0.000 0.610 15000.000 0.000 -1.000
81 243.00 1500.00 233 1222 0.740 10000.000 0.000 0.610 15000.000 0.000 -1.000
82 246.00 1500.00 231 1214 0.740 10000.000 0.000 0.610 15000.000 0.000 -1.000
83 249.00 1500.00 227 1250 0.740 10000.000 0.000 0.610 15000.000 0.000 -1.000
84 252.00 1500.00 255 1183 0.740 10000.000 0.000 0.610 15000.000 0.000 -1.000
85 255.00 1500.00 251 1203 0.740 10000.000 0.000 0.610 15000.000 0.000 -1.000
86 258.00 1500.00 251 1208 0.740 10000.000 0.000 0.610 15000.000 0.000 -1.000
87 261.00 1500.00 288 1135 0.740 10000.000 0.000 0.610 15000.000 0.000 -1.000
88 264.00 1500.00 313 1102 0.740 10000.000 0.000 0.610 15000.000 0.000 -1.000
89 267.00 1500.00 320 1010 0.740 10000.000 0.000 0.610 15000.000 0.000 -1.000
90 270.00 1500.00 317 1013 0.740 10000.000 0.000 0.610 15000.000 0.000 -1.000
91 273.00 1500.00 361 950 0.740 10000.000 0.000 0.610 15000.000 0.000 -1.000
92 276.00 1500.00 368 817 0.740 10000.000 0.000 0.610 15000.000 0.000 -1.000
93 279.00 1500.00 392 723 0.740 10000.000 0.000 0.610 15000.000 0.000 -1.000
94 282.00 1500.00 350 765 0.740 10000.000 0.000 0.610 15000.000 0.000 -1.000
95 285.00 1500.00 337 720 0.740 10000.000 0.000 0.610 15000.000 0.000 -1.000
96 288.00 1500.00 346 740 0.740 10000.000 0.000 0.610 15000.000 0.000 -1.000
97 291.00 1500.00 354 782 0.740 10000.000 0.000 0.610 15000.000 0.000 -1.000
98 294.00 1500.00 343 810 0.740 10000.000 0.000 0.610 15000.000 0.000 -1.000
99 297.00 1500.00 307 816 0.740 10000.000 0.000 0.610 15000.000 0.000 -1.000
100 300.00 1500.00 348 916 0.740 10000.000 0.000 0.610 15000.000 0.000 -1.000
101 303.00 1500.00 292 968 0.740 10000.000 0.000 0.610 15000.000 0.000 -1.000
102 306.00 1500.00 332 1054 0.740 10000.000 0.000 0.610 15000.000 0.000 -1.000
103 309.00 1500.00 309 1001 0.740 10000.000 0.000 0.610 15000.000 0.000 -1.000
104 312.00 1500.00 347 1151 0.740 10000.000 0.000 0.610 15000.000 0.000 -1.000
105 315.00 1500.00 364 1145 0.740 10000.000 0.000 0.610 15000.000 0.000 -1.000
106 318.00 1500.00 345 1131 0.740 10000.000 0.000 0.610 15000.000 0.000 -1.000
107 321.00 1500.00 356 1100 0.740 10000.000 0.000 0.610 15000.000 0.000 -1.000
108 324.00 1500.00 393 1116 0.740 10000.000 0.000 0.610 15000.000 0.000 -1.000
109 327.00 1500.00 372 1051 0.740 10000.000 0.000 0.610 15000.000 0.000 -1.000
110 330.00 1500.00 338 1080 0.740 10000.000 0.000 0.610 15000.000 0.000 -1.000
111 333.00 1500.00 358 1036 0.740 10000.000 0.000 0.610 15000.000 0.000 -1.000
112 336.00 1500.00 331 1083 0.740 10000.000 0.000 0.610 15000.000 0.000 -1.000
113 339.00 1500.00 306 999 0.740 10000.000 0.000 0.610 15000.000 0.000 -1.000
114 342.00 1500.00 280 1060 0.740 10000.000 0.000 0.610 15000.000 0.000 -1.000
115 345.00 1500.00 258 978 0.740 10000.000 0.000 0.610 15000.000 0.000 -1.000
116 348.00 1500.00 311 1041 0.740 10000.000 0.000 0.610 15000.000 0.000 -1.000
117 351.00 1500.00 233 1049 0.740 10000.000 0.000 0.610 15000.000 0.000 -1.000
118 354.00 1500.00 246 1089 0.740 10000.000 0.000 0.610 15000.000 0.000 -1.000
119 357.00 1500.00 278 1027 0.740 10000.000 0.000 0.610 15000.000 0.000 -1.000
120 360.00 1500.00 258 1116 0.740 10000.000 0.000 0.610 15000.000 0.000 -1.000
121 363.00 1500.00 250 1059 0.740 10000.000 0.000 0.610 15000.000 0.000 -1.000
122 366.00 1500.00 253 1159 0.740 10000.000 0.000 0.610 15000.000 0.000 -1.000
123 369.00 1500.00 280 1066 0.740 10000.000 0.000 0.610 15000.000 0.000 -1.000
124 372.00 1500.00 255 1140 0.740 10000.000 0.000 0.610 15000.000 0.000 -1.000
125 375.00 1500.00 309 1120 0.740 10000.000 0.000 0.610 15000.000 0.000 -1.000
126 378.00 1500.00 322 1148 0.740 10000.000 0.000 0.610 15000.000 0.000 -1.000
127 381.00 1500.00 305 1083 0.740 10000.000 0.000 0.610 15000.000 0.000 -1.000
128 384.00 1500.00 306 1095 0.740 10000.000 0.000 0.610 15000.000 0.000 -1.000
129 387.00 1500.00 324 1053 0.740 10000.000 0.000 0.610 15000.000 0.000 -1.000
130 390.00 1500.00 351 1009 0.740 10000.000 0.000 0.610 15000.000 0.000 -1.000
131 393.00 1500.00 338 898 0.740 10000.000 0.000 0.610 15000.000 0.000 -1.000
132 396.00 1500.00 389 899 0.740 10000.000 0.000 0.610 15000.000 0.000 -1.000
133 399.00 1500.00 352 812 0.740 10000.000 0.000 0.610 15000.000 0.000 -1.000
134 402.00 1500.00 363 792 0.740 10000.000 0.000 0.610 15000.000 0.000 -1.000
135 405.00 1500.00 337 744 0.740 10000.000 0.000 0.610 15000.000 0.000 -1.000
136 408.00 1500.00 344 793 0.740 10000.000 0.000 0.610 15000.000 0.000 -1.000
137 411.00 1500.00 348 726 0.740 10000.000 0.000 0.610 15000.000 0.000 -1.000
138 414.00 1500.00 333 749 0.740 10000.000 0.000 0.610 15000.000 0.000 -1.000
139 417.00 1500.00 301 853 0.740 10000.000 0.000 0.610 15000.000 0.000 -1.000
140 420.00 1500.00 308 870 0.740 10000.000 0.000 0.610 15000.000 0.000 -1.000
141 423.00 1500.00 316 861 0.740 10000.000 0.000 0.610 15000.000 0.000 -1.000
142 426.00 1500.00 350 1060 0.740 10000.000 0.000 0.610 15000.000 0.000 -1.000
143 429.00 1500.00 332 1127 0.740 10000.000 0.000 0.610 15000.000 0.000 -1.000
144 432.00 1500.00 333 1147 0.740 10000.000 0.000 0.610 15000.000 0.000 -1.000
