# BinNR microsec tot-time (s)  O-Beam AUX Ampl_1(V) f_1(Hz) phase_1(deg) Ampl_2(V) f_2(Hz) phase_2(deg) chi(pos)
0 0.00 1500.00 191 530 0.740 10000.000 0.000 0.610 15000.000 0.000 1.494
1 3.00 1500.00 447 1004 0.740 10000.000 0.000 0.610 15000.000 0.000 1.494
2 6.00 1500.00 440 1012 0.740 10000.000 0.000 0.610 15000.000 0.000 1.494
3 9.00 1500.00 430 957 0.740 10000.000 0.000 0.610 15000.000 0.000 1.494
4 12.00 1500.00 435 1050 0.740 10000.000 0.000 0.610 15000.000 0.000 1.494
5 15.00 1500.00 427 1153 0.740 10000.000 0.000 0.610 15000.000 0.000 1.494
6 18.00 1500.00 444 1166 0.740 10000.000 0.000 0.610 15000.000 0.000 1.494
7 21.00 1500.00 425 1106 0.740 10000.000 0.000 0.610 15000.000 0.000 1.494
8 24.00 1500.00 445 1181 0.740 10000.000 0.000 0.610 15000.000 0.000 1.494
9 27.00 1500.00 482 1192 0.740 10000.000 0.000 0.610 15000.000 0.000 1.494
10 30.00 1500.00 454 1202 0.740 10000.000 0.000 0.610 15000.000 0.000 1.494
11 33.00 1500.00 417 1224 0.740 10000.000 0.000 0.610 15000.000 0.000 1.494
12 36.00 1500.00 423 1242 0.740 10000.000 0.000 0.610 15000.000 0.000 1.494
13 39.00 1500.00 445 1258 0.740 10000.000 0.000 0.610 15000.000 0.000 1.494
14 42.00 1500.00 438 1228 0.740 10000.000 0.000 0.610 15000.000 0.000 1.494
15 45.00 1500.00 413 1153 0.740 10000.000 0.000 0.610 15000.000 0.000 1.494
16 48.00 1500.00 394 1098 0.740 10000.000 0.000 0.610 15000.000 0.000 1.494
17 51.00 1500.00 433 1084 0.740 10000.000 0.000 0.610 15000.000 0.000 1.494
18 54.00 1500.00 426 1054 0.740 10000.000 0.000 0.610 15000.000 0.000 1.494
19 57.00 1500.00 404 1014 0.740 10000.000 0.000 0.610 15000.000 0.000 1.494
20 60.00 1500.00 428 1061 0.740 10000.000 0.000 0.610 15000.000 0.000 1.494
21 63.00 1500.00 423 1073 0.740 10000.000 0.000 0.610 15000.000 0.000 1.494
22 66.00 1500.00 406 1181 0.740 10000.000 0.000 0.610 15000.000 0.000 1.494
23 69.00 1500.00 444 1223 0.740 10000.000 0.000 0.610 15000.000 0.000 1.494
24 72.00 1500.00 422 1223 0.740 10000.000 0.000 0.610 15000.000 0.000 1.494
25 75.00 1500.00 409 1300 0.740 10000.000 0.000 0.610 15000.000 0.000 1.494
26 78.00 1500.00 408 1275 0.740 10000.000 0.000 0.610 15000.000 0.000 1.494
27 81.00 1500.00 415 1235 0.740 10000.000 0.000 0.610 15000.000 0.000 1.494
28 84.00 1500.00 419 1293 0.740 10000.000 0.000 0.610 15000.000 0.000 1.494
29 87.00 1500.00 426 1338 0.740 10000.000 0.000 0.610 15000.000 0.000 1.494
30 90.00 1500.00 445 1263 0.740 10000.000 0.000 0.610 15000.000 0.000 1.494
31 93.00 1500.00 420 1234 0.740 10000.000 0.000 0.610 15000.000 0.000 1.494
32 96.00 1500.00 436 1284 0.740 10000.000 0.000 0.610 15000.000 0.000 1.494
33 99.00 1500.00 423 1248 0.740 10000.000 0.000 0.610 15000.000 0.000 1.494
34 102.00 1500.00 455 1217 0.740 10000.000 0.000 0.610 15000.000 0.000 1.494
35 105.00 1500.00 431 1201 0.740 10000.000 0.000 0.610 15000.000 0.000 1.494
36 108.00 1500.00 401 1238 0.740 10000.000 0.000 0.610 15000.000 0.000 1.494
37 111.00 1500.00 414 1162 0.740 10000.000 0.000 0.610 15000.000 0.000 1.494
38 114.00 1500.00 439 1165 0.740 10000.000 0.000 0.610 15000.000 0.000 1.494
39 117.00 1500.00 442 1123 0.740 10000.000 0.000 0.610 15000.000 0.000 1.494
40 120.00 1500.00 458 1134 0.740 10000.000 0.000 0.610 15000.000 0.000 1.494
41 123.00 1500.00 420 1092 0.740 10000.000 0.000 0.610 15000.000 0.000 1.494
42 126.00 1500.00 414 1166 0.740 10000.000 0.000 0.610 15000.000 0.000 1.494
43 129.00 1500.00 460 1085 0.740 10000.000 0.000 0.610 15000.000 0.000 1.494
44 132.00 1500.00 436 1131 0.740 10000.000 0.000 0.610 15000.000 0.000 1.494
45 135.00 1500.00 426 1164 0.740 10000.000 0.000 0.610 15000.000 0.000 1.494
46 138.00 1500.00 435 1222 0.740 10000.000 0.000 0.610 15000.000 0.000 1.494
47 141.00 1500.00 431 1183 0.740 10000.000 0.000 0.610 15000.000 0.000 1.494
48 144.00 1500.00 458 1175 0.740 10000.000 0.000 0.610 15000.000 0.000 1.494
49 147.00 1500.00 470 1145 0.740 10000.000 0.000 0.610 15000.000 0.000 1.494
50 150.00 1500.00 377 1218 0.740 10000.000 0.000 0.610 15000.000 0.000 1.494
51 153.00 1500.00 430 1152 0.740 10000.000 0.000 0.610 15000.000 0.000 1.494
52 156.00 1500.00 438 1230 0.740 10000.000 0.000 0.610 15000.000 0.000 1.494
53 159.00 1500.00 420 1118 0.740 10000.000 0.000 0.610 15000.000 0.000 1.494
54 162.00 1500.00 449 1151 0.740 10000.000 0.000 0.610 15000.000 0.000 1.494
55 165.00 1500.00 448 1109 0.740 10000.000 0.000 0.610 15000.000 0.000 1.494
56 168.00 1500.00 506 1155 0.740 10000.000 0.000 0.610 15000.000 0.000 1.494
57 171.00 1500.00 445 1083 0.740 10000.000 0.000 0.610 15000.000 0.000 1.494
58 174.00 1500.00 449 1197 0.740 10000.000 0.000 0.610 15000.000 0.000 1.494
59 177.00 1500.00 432 1122 0.740 10000.000 0.000 0.610 15000.000 0.000 1.494
60 180.00 1500.00 407 1124 0.740 10000.000 0.000 0.610 15000.000 0.000 1.494
61 183.00 1500.00 445 1158 0.740 10000.000 0.000 0.610 15000.000 0.000 1.494
62 186.00 1500.00 473 1185 0.740 10000.000 0.000 0.610 15000.000 0.000 1.494
63 189.00 1500.00 422 1146 0.740 10000.000 0.000 0.610 15000.000 0.000 1.494
64 192.00 1500.00 442 1217 0.740 10000.000 0.000 0.610 15000.000 0.000 1.494
65 195.00 1500.00 461 1232 0.740 10000.000 0.000 0.610 15000.000 0.000 1.494
66 198.00 1500.00 447 1190 0.740 10000.000 0.000 0.610 15000.000 0.000 1.494
67 201.00 1500.00 438 1315 0.740 10000.000 0.000 0.610 15000.000 0.000 1.494
68 204.00 1500.00 457 1264 0.740 10000.000 0.000 0.610 15000.000 0.000 1.494
69 207.00 1500.00 449 1239 0.740 10000.000 0.000 0.610 15000.000 0.000 1.494
70 210.00 1500.00 415 1265 0.740 10000.000 0.000 0.610 15000.000 0.000 1.494
71 213.00 1500.00 451 1208 0.740 10000.000 0.000 0.610 15000.000 0.000 1.494
72 216.00 1500.00 483 1258 0.740 10000.000 0.000 0.610 15000.000 0.000 1.494
73 219.00 1500.00 456 1273 0.740 10000.000 0.000 0.610 15000.000 0.000 1.494
74 222.00 1500.00 436 1276 0.740 10000.000 0.000 0.610 15000.000 0.000 1.494
75 225.00 1500.00 434 1241 0.740 10000.000 0.000 0.610 15000.000 0.000 1.494
76 228.00 1500.00 455 1235 0.740 10000.000 0.000 0.610 15000.000 0.000 1.494
77 231.00 1500.00 428 1076 0.740 10000.000 0.000 0.610 15000.000 0.000 1.494
78 234.00 1500.00 430 1101 0.740 10000.000 0.000 0.610 15000.000 0.000 1.494
79 237.00 1500.00 409 983 0.740 10000.000 0.000 0.610 15000.000 0.000 1.494
80 240.00 1500.00 446 1020 0.740 10000.000 0.000 0.610 15000.000 0.000 1.494
81 243.00 1500.00 417 930 0.740 10000.000 0.000 0.610 15000.000 0.000 1.494
82 246.00 1500.00 439 909 0.740 10000.000 0.000 0.610 15000.000 0.000 1.494
83 249.00 1500.00 451 981 0.740 10000.000 0.000 0.610 15000.000 0.000 1.494
84 252.00 1500.00 470 925 0.740 10000.000 0.000 0.610 15000.000 0.000 1.494
85 255.00 1500.00 426 951 0.740 10000.000 0.000 0.610 15000.000 0.000 1.494
86 258.00 1500.00 434 996 0.740 10000.000 0.000 0.610 15000.000 0.000 1.494
87 261.00 1500.00 411 1062 0.740 10000.000 0.000 0.610 15000.000 0.000 1.494
88 264.00 1500.00 408 1114 0.740 10000.000 0.000 0.610 15000.000 0.000 1.494
89 267.00 1500.00 468 1164 0.740 10000.000 0.000 0.610 15000.000 0.000 1.494
90 270.00 1500.00 461 1207 0.740 10000.000 0.000 0.610 15000.000 0.000 1.494
91 273.00 1500.00 435 1241 0.740 10000.000 0.000 0.610 15000.000 0.000 1.494
92 276.00 1500.00 446 1282 0.740 10000.000 0.000 0.610 15000.000 0.000 1.494
93 279.00 1500.00 433 1224 0.740 10000.000 0.000 0.610 15000.000 0.000 1.494
94 282.00 1500.00 415 1218 0.740 10000.000 0.000 0.610 15000.000 0.000 1.494
95 285.00 1500.00 472 1309 0.740 10000.000 0.000 0.610 15000.000 0.000 1.494
96 288.00 1500.00 463 1279 0.740 10000.000 0.000 0.610 15000.000 0.000 1.494
97 291.00 1500.00 404 1310 0.740 10000.000 0.000 0.610 15000.000 0.000 1.494
98 294.00 1500.00 447 1252 0.740 10000.000 0.000 0.610 15000.000 0.000 1.494
99 297.00 1500.00 454 1261 0.740 10000.000 0.000 0.610 15000.000 0.000 1.494
100 300.00 1500.00 428 1266 0.740 10000.000 0.000 0.610 15000.000 0.000 1.494
101 303.00 1500.00 449 1204 0.740 10000.000 0.000 0.610 15000.000 0.000 1.494
102 306.00 1500.00 445 1288 0.740 10000.000 0.000 0.610 15000.000 0.000 1.494
103 309.00 1500.00 466 1174 0.740 10000.000 0.000 0.610 15000.000 0.000 1.494
104 312.00 1500.00 476 1139 0.740 10000.000 0.000 0.610 15000.000 0.000 1.494
105 315.00 1500.00 473 1112 0.740 10000.000 0.000 0.610 15000.000 0.000 1.494
106 318.00 1500.00 423 1072 0.740 10000.000 0.000 0.610 15000.000 0.000 1.494
107 321.00 1500.00 409 1121 0.740 10000.000 0.000 0.610 15000.000 0.000 1.494
108 324.00 1500.00 445 1167 0.740 10000.000 0.000 0.610 15000.000 0.000 1.494
109 327.00 1500.00 413 1246 0.740 10000.000 0.000 0.610 15000.000 0.000 1.494
110 330.00 1500.00 425 1207 0.740 10000.000 0.000 0.610 15000.000 0.000 1.494
111 333.00 1500.00 442 1185 0.740 10000.000 0.000 0.610 15000.000 0.000 1.494
112 336.00 1500.00 427 1210 0.740 10000.000 0.000 0.610 15000.000 0.000 1.494
113 339.00 1500.00 441 1120 0.740 10000.000 0.000 0.610 15000.000 0.000 1.494
114 342.00 1500.00 441 1191 0.740 10000.000 0.000 0.610 15000.000 0.000 1.494
115 345.00 1500.00 442 1166 0.740 10000.000 0.000 0.610 15000.000 0.000 1.494
116 348.00 1500.00 449 1186 0.740 10000.000 0.000 0.610 15000.000 0.000 1.494
117 351.00 1500.00 483 1141 0.740 10000.000 0.000 0.610 15000.000 0.000 1.494
118 354.00 1500.00 434 1165 0.740 10000.000 0.000 0.610 15000.000 0.000 1.494
119 357.00 1500.00 434 1185 0.740 10000.000 0.000 0.610 15000.000 0.000 1.494
120 360.00 1500.00 481 1210 0.740 10000.000 0.000 0.610 15000.000 0.000 1.494
121 363.00 1500.00 406 1157 0.740 10000.000 0.000 0.610 15000.000 0.000 1.494
122 366.00 1500.00 403 1204 0.740 10000.000 0.000 0.610 15000.000 0.000 1.494
123 369.00 1500.00 428 1146 0.740 10000.000 0.000 0.610 15000.000 0.000 1.494
124 372.00 1500.00 455 1099 0.740 10000.000 0.000 0.610 15000.000 0.000 1.494
125 375.00 1500.00 405 1041 0.740 10000.000 0.000 0.610 15000.000 0.000 1.494
126 378.00 1500.00 434 1087 0.740 10000.000 0.000 0.610 15000.000 0.000 1.494
127 381.00 1500.00 375 1153 0.740 10000.000 0.000 0.610 15000.000 0.000 1.494
128 384.00 1500.00 443 1156 0.740 10000.000 0.000 0.610 15000.000 0.000 1.494
129 387.00 1500.00 390 1143 0.740 10000.000 0.000 0.610 15000.000 0.000 1.494
130 390.00 1500.00 418 1181 0.740 10000.000 0.000 0.610 15000.000 0.000 1.494
131 393.00 1500.00 411 1180 0.740 10000.000 0.000 0.610 15000.000 0.000 1.494
132 396.00 1500.00 448 1207 0.740 10000.000 0.000 0.610 15000.000 0.000 1.494
133 399.00 1500.00 414 1191 0.740 10000.000 0.000 0.610 15000.000 0.000 1.494
134 402.00 1500.00 456 1286 0.740 10000.000 0.000 0.610 15000.000 0.000 1.494
135 405.00 1500.00 430 1282 0.740 10000.000 0.000 0.610 15000.000 0.000 1.494
136 408.00 1500.00 445 1320 0.740 10000.000 0.000 0.610 15000.000 0.000 1.494
137 411.00 1500.00 440 1290 0.740 10000.000 0.000 0.610 15000.000 0.000 1.494
138 414.00 1500.00 433 1285 0.740 10000.000 0.000 0.610 15000.000 0.000 1.494
139 417.00 1500.00 421 1253 0.740 10000.000 0.000 0.610 15000.000 0.000 1.494
140 420.00 1500.00 455 1262 0.740 10000.000 0.000 0.610 15000.000 0.000 1.494
141 423.00 1500.00 437 1221 0.740 10000.000 0.000 0.610 15000.000 0.000 1.494
142 426.00 1500.00 457 1161 0.740 10000.000 0.000 0.610 15000.000 0.000 1.494
143 429.00 1500.00 426 1201 0.740 10000.000 0.000 0.610 15000.000 0.000 1.494
144 432.00 1500.00 446 1097 0.740 10000.000 0.000 0.610 15000.000 0.000 1.494
