# BinNR microsec tot-time (s)  O-Beam AUX Ampl_1(V) f_1(Hz) phase_1(deg) Ampl_2(V) f_2(Hz) phase_2(deg) chi(pos)
0 0.00 1500.00 142 447 0.740 10000.000 0.000 0.610 15000.000 0.000 0.835
1 3.00 1500.00 252 987 0.740 10000.000 0.000 0.610 15000.000 0.000 0.835
2 6.00 1500.00 237 958 0.740 10000.000 0.000 0.610 15000.000 0.000 0.835
3 9.00 1500.00 240 960 0.740 10000.000 0.000 0.610 15000.000 0.000 0.835
4 12.00 1500.00 264 1012 0.740 10000.000 0.000 0.610 15000.000 0.000 0.835
5 15.00 1500.00 251 953 0.740 10000.000 0.000 0.610 15000.000 0.000 0.835
6 18.00 1500.00 239 853 0.740 10000.000 0.000 0.610 15000.000 0.000 0.835
7 21.00 1500.00 205 839 0.740 10000.000 0.000 0.610 15000.000 0.000 0.835
8 24.00 1500.00 226 788 0.740 10000.000 0.000 0.610 15000.000 0.000 0.835
9 27.00 1500.00 202 764 0.740 10000.000 0.000 0.610 15000.000 0.000 0.835
10 30.00 1500.00 224 738 0.740 10000.000 0.000 0.610 15000.000 0.000 0.835
11 33.00 1500.00 190 707 0.740 10000.000 0.000 0.610 15000.000 0.000 0.835
12 36.00 1500.00 165 755 0.740 10000.000 0.000 0.610 15000.000 0.000 0.835
13 39.00 1500.00 153 724 0.740 10000.000 0.000 0.610 15000.000 0.000 0.835
14 42.00 1500.00 166 726 0.740 10000.000 0.000 0.610 15000.000 0.000 0.835
15 45.00 1500.00 149 802 0.740 10000.000 0.000 0.610 15000.000 0.000 0.835
16 48.00 1500.00 182 947 0.740 10000.000 0.000 0.610 15000.000 0.000 0.835
17 51.00 1500.00 149 941 0.740 10000.000 0.000 0.610 15000.000 0.000 0.835
18 54.00 1500.00 150 907 0.740 10000.000 0.000 0.610 15000.000 0.000 0.835
19 57.00 1500.00 197 893 0.740 10000.000 0.000 0.610 15000.000 0.000 0.835
20 60.00 1500.00 180 903 0.740 10000.000 0.000 0.610 15000.000 0.000 0.835
21 63.00 1500.00 226 845 0.740 10000.000 0.000 0.610 15000.000 0.000 0.835
22 66.00 1500.00 246 811 0.740 10000.000 0.000 0.610 15000.000 0.000 0.835
23 69.00 1500.00 272 762 0.740 10000.000 0.000 0.610 15000.000 0.000 0.835
24 72.00 1500.00 317 607 0.740 10000.000 0.000 0.610 15000.000 0.000 0.835
25 75.00 1500.00 282 606 0.740 10000.000 0.000 0.610 15000.000 0.000 0.835
26 78.00 1500.00 303 533 0.740 10000.000 0.000 0.610 15000.000 0.000 0.835
27 81.00 1500.00 320 460 0.740 10000.000 0.000 0.610 15000.000 0.000 0.835
28 84.00 1500.00 281 451 0.740 10000.000 0.000 0.610 15000.000 0.000 0.835
29 87.00 1500.00 328 445 0.740 10000.000 0.000 0.610 15000.000 0.000 0.835
30 90.00 1500.00 312 432 0.740 10000.000 0.000 0.610 15000.000 0.000 0.835
31 93.00 1500.00 301 467 0.740 10000.000 0.000 0.610 15000.000 0.000 0.835
32 96.00 1500.00 316 524 0.740 10000.000 0.000 0.610 15000.000 0.000 0.835
33 99.00 1500.00 255 588 0.740 10000.000 0.000 0.610 15000.000 0.000 0.835
34 102.00 1500.00 232 625 0.740 10000.000 0.000 0.610 15000.000 0.000 0.835
35 105.00 1500.00 232 652 0.740 10000.000 0.000 0.610 15000.000 0.000 0.835
36 108.00 1500.00 217 746 0.740 10000.000 0.000 0.610 15000.000 0.000 0.835
37 111.00 1500.00 182 765 0.740 10000.000 0.000 0.610 15000.000 0.000 0.835
38 114.00 1500.00 177 891 0.740 10000.000 0.000 0.610 15000.000 0.000 0.835
39 117.00 1500.00 165 857 0.740 10000.000 0.000 0.610 15000.000 0.000 0.835
40 120.00 1500.00 143 818 0.740 10000.000 0.000 0.610 15000.000 0.000 0.835
41 123.00 1500.00 129 840 0.740 10000.000 0.000 0.610 15000.000 0.000 0.835
42 126.00 1500.00 156 883 0.740 10000.000 0.000 0.610 15000.000 0.000 0.835
43 129.00 1500.00 192 822 0.740 10000.000 0.000 0.610 15000.000 0.000 0.835
44 132.00 1500.00 184 839 0.740 10000.000 0.000 0.610 15000.000 0.000 0.835
45 135.00 1500.00 192 786 0.740 10000.000 0.000 0.610 15000.000 0.000 0.835
46 138.00 1500.00 190 764 0.740 10000.000 0.000 0.610 15000.000 0.000 0.835
47 141.00 1500.00 199 791 0.740 10000.000 0.000 0.610 15000.000 0.000 0.835
48 144.00 1500.00 221 763 0.740 10000.000 0.000 0.610 15000.000 0.000 0.835
49 147.00 1500.00 238 754 0.740 10000.000 0.000 0.610 15000.000 0.000 0.835
50 150.00 1500.00 225 720 0.740 10000.000 0.000 0.610 15000.000 0.000 0.835
51 153.00 1500.00 258 759 0.740 10000.000 0.000 0.610 15000.000 0.000 0.835
52 156.00 1500.00 258 830 0.740 10000.000 0.000 0.610 15000.000 0.000 0.835
53 159.00 1500.00 267 782 0.740 10000.000 0.000 0.610 15000.000 0.000 0.835
54 162.00 1500.00 243 862 0.740 10000.000 0.000 0.610 15000.000 0.000 0.835
55 165.00 1500.00 261 786 0.740 10000.000 0.000 0.610 15000.000 0.000 0.835
56 168.00 1500.00 235 917 0.740 10000.000 0.000 0.610 15000.000 0.000 0.835
57 171.00 1500.00 244 826 0.740 10000.000 0.000 0.610 15000.000 0.000 0.835
58 174.00 1500.00 261 861 0.740 10000.000 0.000 0.610 15000.000 0.000 0.835
59 177.00 1500.00 240 876 0.740 10000.000 0.000 0.610 15000.000 0.000 0.835
60 180.00 1500.00 236 860 0.740 10000.000 0.000 0.610 15000.000 0.000 0.835
61 183.00 1500.00 252 777 0.740 10000.000 0.000 0.610 15000.000 0.000 0.835
62 186.00 1500.00 238 805 0.740 10000.000 0.000 0.610 15000.000 0.000 0.835
63 189.00 1500.00 229 664 0.740 10000.000 0.000 0.610 15000.000 0.000 0.835
64 192.00 1500.00 247 622 0.740 10000.000 0.000 0.610 15000.000 0.000 0.835
65 195.00 1500.00 259 644 0.740 10000.000 0.000 0.610 15000.000 0.000 0.835
66 198.00 1500.00 252 531 0.740 10000.000 0.000 0.610 15000.000 0.000 0.835
67 201.00 1500.00 231 489 0.740 10000.000 0.000 0.610 15000.000 0.000 0.835
68 204.00 1500.00 265 455 0.740 10000.000 0.000 0.610 15000.000 0.000 0.835
69 207.00 1500.00 254 413 0.740 10000.000 0.000 0.610 15000.000 0.000 0.835
70 210.00 1500.00 280 425 0.740 10000.000 0.000 0.610 15000.000 0.000 0.835
71 213.00 1500.00 240 452 0.740 10000.000 0.000 0.610 15000.000 0.000 0.835
72 216.00 1500.00 242 471 0.740 10000.000 0.000 0.610 15000.000 0.000 0.835
73 219.00 1500.00 212 493 0.740 10000.000 0.000 0.610 15000.000 0.000 0.835
74 222.00 1500.00 230 572 0.740 10000.000 0.000 0.610 15000.000 0.000 0.835
75 225.00 1500.00 213 636 0.740 10000.000 0.000 0.610 15000.000 0.000 0.835
76 228.00 1500.00 205 765 0.740 10000.000 0.000 0.610 15000.000 0.000 0.835
77 231.00 1500.00 171 804 0.740 10000.000 0.000 0.610 15000.000 0.000 0.835
78 234.00 1500.00 160 937 0.740 10000.000 0.000 0.610 15000.000 0.000 0.835
79 237.00 1500.00 160 949 0.740 10000.000 0.000 0.610 15000.000 0.000 0.835
80 240.00 1500.00 155 1031 0.740 10000.000 0.000 0.610 15000.000 0.000 0.835
81 243.00 1500.00 142 1039 0.740 10000.000 0.000 0.610 15000.000 0.000 0.835
82 246.00 1500.00 146 1039 0.740 10000.000 0.000 0.610 15000.000 0.000 0.835
83 249.00 1500.00 156 1111 0.740 10000.000 0.000 0.610 15000.000 0.000 0.835
84 252.00 1500.00 178 1048 0.740 10000.000 0.000 0.610 15000.000 0.000 0.835
85 255.00 1500.00 161 1013 0.740 10000.000 0.000 0.610 15000.000 0.000 0.835
86 258.00 1500.00 165 951 0.740 10000.000 0.000 0.610 15000.000 0.000 0.835
87 261.00 1500.00 198 918 0.740 10000.000 0.000 0.610 15000.000 0.000 0.835
88 264.00 1500.00 233 824 0.740 10000.000 0.000 0.610 15000.000 0.000 0.835
89 267.00 1500.00 247 722 0.740 10000.000 0.000 0.610 15000.000 0.000 0.835
90 270.00 1500.00 273 679 0.740 10000.000 0.000 0.610 15000.000 0.000 0.835
91 273.00 1500.00 280 589 0.740 10000.000 0.000 0.610 15000.000 0.000 0.835
92 276.00 1500.00 271 532 0.740 10000.000 0.000 0.610 15000.000 0.000 0.835
93 279.00 1500.00 299 476 0.740 10000.000 0.000 0.610 15000.000 0.000 0.835
94 282.00 1500.00 267 449 0.740 10000.000 0.000 0.610 15000.000 0.000 0.835
95 285.00 1500.00 249 401 0.740 10000.000 0.000 0.610 15000.000 0.000 0.835
96 288.00 1500.00 291 430 0.740 10000.000 0.000 0.610 15000.000 0.000 0.835
97 291.00 1500.00 246 494 0.740 10000.000 0.000 0.610 15000.000 0.000 0.835
98 294.00 1500.00 243 465 0.740 10000.000 0.000 0.610 15000.000 0.000 0.835
99 297.00 1500.00 220 546 0.740 10000.000 0.000 0.610 15000.000 0.000 0.835
100 300.00 1500.00 246 605 0.740 10000.000 0.000 0.610 15000.000 0.000 0.835
101 303.00 1500.00 235 680 0.740 10000.000 0.000 0.610 15000.000 0.000 0.835
102 306.00 1500.00 246 674 0.740 10000.000 0.000 0.610 15000.000 0.000 0.835
103 309.00 1500.00 226 735 0.740 10000.000 0.000 0.610 15000.000 0.000 0.835
104 312.00 1500.00 218 817 0.740 10000.000 0.000 0.610 15000.000 0.000 0.835
105 315.00 1500.00 264 797 0.740 10000.000 0.000 0.610 15000.000 0.000 0.835
106 318.00 1500.00 249 901 0.740 10000.000 0.000 0.610 15000.000 0.000 0.835
107 321.00 1500.00 265 892 0.740 10000.000 0.000 0.610 15000.000 0.000 0.835
108 324.00 1500.00 271 879 0.740 10000.000 0.000 0.610 15000.000 0.000 0.835
109 327.00 1500.00 242 863 0.740 10000.000 0.000 0.610 15000.000 0.000 0.835
110 330.00 1500.00 261 845 0.740 10000.000 0.000 0.610 15000.000 0.000 0.835
111 333.00 1500.00 250 797 0.740 10000.000 0.000 0.610 15000.000 0.000 0.835
112 336.00 1500.00 227 784 0.740 10000.000 0.000 0.610 15000.000 0.000 0.835
113 339.00 1500.00 239 783 0.740 10000.000 0.000 0.610 15000.000 0.000 0.835
114 342.00 1500.00 192 707 0.740 10000.000 0.000 0.610 15000.000 0.000 0.835
115 345.00 1500.00 192 718 0.740 10000.000 0.000 0.610 15000.000 0.000 0.835
116 348.00 1500.00 187 702 0.740 10000.000 0.000 0.610 15000.000 0.000 0.835
117 351.00 1500.00 183 762 0.740 10000.000 0.000 0.610 15000.000 0.000 0.835
118 354.00 1500.00 151 795 0.740 10000.000 0.000 0.610 15000.000 0.000 0.835
119 357.00 1500.00 145 785 0.740 10000.000 0.000 0.610 15000.000 0.000 0.835
120 360.00 1500.00 162 796 0.740 10000.000 0.000 0.610 15000.000 0.000 0.835
121 363.00 1500.00 155 833 0.740 10000.000 0.000 0.610 15000.000 0.000 0.835
122 366.00 1500.00 183 851 0.740 10000.000 0.000 0.610 15000.000 0.000 0.835
123 369.00 1500.00 173 820 0.740 10000.000 0.000 0.610 15000.000 0.000 0.835
124 372.00 1500.00 199 906 0.740 10000.000 0.000 0.610 15000.000 0.000 0.835
125 375.00 1500.00 183 861 0.740 10000.000 0.000 0.610 15000.000 0.000 0.835
126 378.00 1500.00 205 879 0.740 10000.000 0.000 0.610 15000.000 0.000 0.835
127 381.00 1500.00 236 845 0.740 10000.000 0.000 0.610 15000.000 0.000 0.835
128 384.00 1500.00 223 737 0.740 10000.000 0.000 0.610 15000.000 0.000 0.835
129 387.00 1500.00 235 773 0.740 10000.000 0.000 0.610 15000.000 0.000 0.835
130 390.00 1500.00 250 753 0.740 10000.000 0.000 0.610 15000.000 0.000 0.835
131 393.00 1500.00 242 595 0.740 10000.000 0.000 0.610 15000.000 0.000 0.835
132 396.00 1500.00 241 584 0.740 10000.000 0.000 0.610 15000.000 0.000 0.835
133 399.00 1500.00 245 490 0.740 10000.000 0.000 0.610 15000.000 0.000 0.835
134 402.00 1500.00 253 503 0.740 10000.000 0.000 0.610 15000.000 0.000 0.835
135 405.00 1500.00 246 458 0.740 10000.000 0.000 0.610 15000.000 0.000 0.835
136 408.00 1500.00 237 449 0.740 10000.000 0.000 0.610 15000.000 0.000 0.835
137 411.00 1500.00 224 453 0.740 10000.000 0.000 0.610 15000.000 0.000 0.835
138 414.00 1500.00 223 469 0.740 10000.000 0.000 0.610 15000.000 0.000 0.835
139 417.00 1500.00 202 485 0.740 10000.000 0.000 0.610 15000.000 0.000 0.835
140 420.00 1500.00 255 558 0.740 10000.000 0.000 0.610 15000.000 0.000 0.835
141 423.00 1500.00 203 655 0.740 10000.000 0.000 0.610 15000.000 0.000 0.835
142 426.00 1500.00 258 699 0.740 10000.000 0.000 0.610 15000.000 0.000 0.835
143 429.00 1500.00 230 812 0.740 10000.000 0.000 0.610 15000.000 0.000 0.835
144 432.00 1500.00 243 892 0.740 10000.000 0.000 0.610 15000.000 0.000 0.835
