# BinNR microsec tot-time (s)  O-Beam AUX Ampl(V) f(Hz) phase(deg) chi(pos)
0 0.00 1500.08 212 550 1.000 10000.000 0.000 -0.330
1 3.00 1500.08 434 1107 1.000 10000.000 0.000 -0.330
2 6.00 1500.08 429 1121 1.000 10000.000 0.000 -0.330
3 9.00 1500.08 389 1102 1.000 10000.000 0.000 -0.330
4 12.00 1500.08 442 1129 1.000 10000.000 0.000 -0.330
5 15.00 1500.08 406 1119 1.000 10000.000 0.000 -0.330
6 18.00 1500.08 427 1146 1.000 10000.000 0.000 -0.330
7 21.00 1500.08 387 1130 1.000 10000.000 0.000 -0.330
8 24.00 1500.08 406 1161 1.000 10000.000 0.000 -0.330
9 27.00 1500.08 396 1097 1.000 10000.000 0.000 -0.330
10 30.00 1500.08 422 1161 1.000 10000.000 0.000 -0.330
11 33.00 1500.08 419 1123 1.000 10000.000 0.000 -0.330
12 36.00 1500.08 428 1117 1.000 10000.000 0.000 -0.330
13 39.00 1500.08 384 1064 1.000 10000.000 0.000 -0.330
14 42.00 1500.08 404 1086 1.000 10000.000 0.000 -0.330
15 45.00 1500.08 410 1084 1.000 10000.000 0.000 -0.330
16 48.00 1500.08 452 1118 1.000 10000.000 0.000 -0.330
17 51.00 1500.08 389 1061 1.000 10000.000 0.000 -0.330
18 54.00 1500.08 381 1088 1.000 10000.000 0.000 -0.330
19 57.00 1500.08 364 1120 1.000 10000.000 0.000 -0.330
20 60.00 1500.08 401 1120 1.000 10000.000 0.000 -0.330
21 63.00 1500.08 396 1120 1.000 10000.000 0.000 -0.330
22 66.00 1500.08 409 1090 1.000 10000.000 0.000 -0.330
23 69.00 1500.08 409 1115 1.000 10000.000 0.000 -0.330
24 72.00 1500.08 414 1181 1.000 10000.000 0.000 -0.330
25 75.00 1500.08 415 1120 1.000 10000.000 0.000 -0.330
26 78.00 1500.08 484 1161 1.000 10000.000 0.000 -0.330
27 81.00 1500.08 410 1115 1.000 10000.000 0.000 -0.330
28 84.00 1500.08 420 1076 1.000 10000.000 0.000 -0.330
29 87.00 1500.08 391 1085 1.000 10000.000 0.000 -0.330
30 90.00 1500.08 440 1120 1.000 10000.000 0.000 -0.330
31 93.00 1500.08 413 1145 1.000 10000.000 0.000 -0.330
32 96.00 1500.08 425 1097 1.000 10000.000 0.000 -0.330
33 99.00 1500.08 422 1141 1.000 10000.000 0.000 -0.330
34 102.00 1500.08 429 1110 1.000 10000.000 0.000 -0.330
35 105.00 1500.08 423 1125 1.000 10000.000 0.000 -0.330
36 108.00 1500.08 438 1108 1.000 10000.000 0.000 -0.330
37 111.00 1500.08 463 1193 1.000 10000.000 0.000 -0.330
38 114.00 1500.08 413 1148 1.000 10000.000 0.000 -0.330
39 117.00 1500.08 421 1113 1.000 10000.000 0.000 -0.330
40 120.00 1500.08 396 1124 1.000 10000.000 0.000 -0.330
41 123.00 1500.08 388 1168 1.000 10000.000 0.000 -0.330
42 126.00 1500.08 391 1091 1.000 10000.000 0.000 -0.330
43 129.00 1500.08 436 1065 1.000 10000.000 0.000 -0.330
44 132.00 1500.08 411 1148 1.000 10000.000 0.000 -0.330
45 135.00 1500.08 418 1103 1.000 10000.000 0.000 -0.330
46 138.00 1500.08 384 1118 1.000 10000.000 0.000 -0.330
47 141.00 1500.08 370 1156 1.000 10000.000 0.000 -0.330
48 144.00 1500.08 374 1109 1.000 10000.000 0.000 -0.330
49 147.00 1500.08 379 1106 1.000 10000.000 0.000 -0.330
50 150.00 1500.08 399 1129 1.000 10000.000 0.000 -0.330
51 153.00 1500.08 362 1103 1.000 10000.000 0.000 -0.330
52 156.00 1500.08 420 1124 1.000 10000.000 0.000 -0.330
53 159.00 1500.08 414 1134 1.000 10000.000 0.000 -0.330
54 162.00 1500.08 409 1180 1.000 10000.000 0.000 -0.330
55 165.00 1500.08 415 1098 1.000 10000.000 0.000 -0.330
56 168.00 1500.08 424 1182 1.000 10000.000 0.000 -0.330
57 171.00 1500.08 401 1129 1.000 10000.000 0.000 -0.330
58 174.00 1500.08 426 1147 1.000 10000.000 0.000 -0.330
59 177.00 1500.08 396 1098 1.000 10000.000 0.000 -0.330
60 180.00 1500.08 395 1126 1.000 10000.000 0.000 -0.330
61 183.00 1500.08 393 1114 1.000 10000.000 0.000 -0.330
62 186.00 1500.08 445 1148 1.000 10000.000 0.000 -0.330
63 189.00 1500.08 440 1114 1.000 10000.000 0.000 -0.330
64 192.00 1500.08 453 1139 1.000 10000.000 0.000 -0.330
65 195.00 1500.08 420 1096 1.000 10000.000 0.000 -0.330
66 198.00 1500.08 438 1137 1.000 10000.000 0.000 -0.330
67 201.00 1500.08 447 1074 1.000 10000.000 0.000 -0.330
68 204.00 1500.08 491 1134 1.000 10000.000 0.000 -0.330
69 207.00 1500.08 406 1040 1.000 10000.000 0.000 -0.330
70 210.00 1500.08 463 1078 1.000 10000.000 0.000 -0.330
71 213.00 1500.08 386 1134 1.000 10000.000 0.000 -0.330
72 216.00 1500.08 372 1103 1.000 10000.000 0.000 -0.330
73 219.00 1500.08 425 1116 1.000 10000.000 0.000 -0.330
74 222.00 1500.08 409 1125 1.000 10000.000 0.000 -0.330
75 225.00 1500.08 405 1083 1.000 10000.000 0.000 -0.330
76 228.00 1500.08 412 1133 1.000 10000.000 0.000 -0.330
77 231.00 1500.08 394 1091 1.000 10000.000 0.000 -0.330
78 234.00 1500.08 391 1051 1.000 10000.000 0.000 -0.330
79 237.00 1500.08 390 1121 1.000 10000.000 0.000 -0.330
80 240.00 1500.08 390 1114 1.000 10000.000 0.000 -0.330
81 243.00 1500.08 416 1103 1.000 10000.000 0.000 -0.330
82 246.00 1500.08 398 1125 1.000 10000.000 0.000 -0.330
83 249.00 1500.08 406 1149 1.000 10000.000 0.000 -0.330
84 252.00 1500.08 405 1066 1.000 10000.000 0.000 -0.330
85 255.00 1500.08 376 1107 1.000 10000.000 0.000 -0.330
86 258.00 1500.08 368 1077 1.000 10000.000 0.000 -0.330
87 261.00 1500.08 371 1085 1.000 10000.000 0.000 -0.330
88 264.00 1500.08 403 1135 1.000 10000.000 0.000 -0.330
89 267.00 1500.08 396 1068 1.000 10000.000 0.000 -0.330
90 270.00 1500.08 431 1228 1.000 10000.000 0.000 -0.330
91 273.00 1500.08 414 1110 1.000 10000.000 0.000 -0.330
92 276.00 1500.08 410 1174 1.000 10000.000 0.000 -0.330
93 279.00 1500.08 413 1151 1.000 10000.000 0.000 -0.330
94 282.00 1500.08 478 1194 1.000 10000.000 0.000 -0.330
95 285.00 1500.08 450 1101 1.000 10000.000 0.000 -0.330
96 288.00 1500.08 406 1159 1.000 10000.000 0.000 -0.330
97 291.00 1500.08 475 1113 1.000 10000.000 0.000 -0.330
98 294.00 1500.08 447 1120 1.000 10000.000 0.000 -0.330
99 297.00 1500.08 420 1181 1.000 10000.000 0.000 -0.330
100 300.00 1500.08 432 1135 1.000 10000.000 0.000 -0.330
101 303.00 1500.08 380 1122 1.000 10000.000 0.000 -0.330
102 306.00 1500.08 417 1132 1.000 10000.000 0.000 -0.330
103 309.00 1500.08 411 1120 1.000 10000.000 0.000 -0.330
104 312.00 1500.08 457 1139 1.000 10000.000 0.000 -0.330
105 315.00 1500.08 406 1119 1.000 10000.000 0.000 -0.330
106 318.00 1500.08 407 1198 1.000 10000.000 0.000 -0.330
107 321.00 1500.08 386 1128 1.000 10000.000 0.000 -0.330
108 324.00 1500.08 428 1173 1.000 10000.000 0.000 -0.330
109 327.00 1500.08 375 1067 1.000 10000.000 0.000 -0.330
110 330.00 1500.08 386 1118 1.000 10000.000 0.000 -0.330
111 333.00 1500.08 406 1072 1.000 10000.000 0.000 -0.330
112 336.00 1500.08 436 1110 1.000 10000.000 0.000 -0.330
113 339.00 1500.08 404 1093 1.000 10000.000 0.000 -0.330
114 342.00 1500.08 390 1080 1.000 10000.000 0.000 -0.330
115 345.00 1500.08 374 1117 1.000 10000.000 0.000 -0.330
116 348.00 1500.08 376 1082 1.000 10000.000 0.000 -0.330
117 351.00 1500.08 382 1090 1.000 10000.000 0.000 -0.330
118 354.00 1500.08 412 1087 1.000 10000.000 0.000 -0.330
119 357.00 1500.08 390 1085 1.000 10000.000 0.000 -0.330
120 360.00 1500.08 411 1146 1.000 10000.000 0.000 -0.330
121 363.00 1500.08 373 1104 1.000 10000.000 0.000 -0.330
122 366.00 1500.08 403 1138 1.000 10000.000 0.000 -0.330
123 369.00 1500.08 409 1158 1.000 10000.000 0.000 -0.330
124 372.00 1500.08 403 1120 1.000 10000.000 0.000 -0.330
125 375.00 1500.08 415 1124 1.000 10000.000 0.000 -0.330
126 378.00 1500.08 451 1147 1.000 10000.000 0.000 -0.330
127 381.00 1500.08 445 1141 1.000 10000.000 0.000 -0.330
128 384.00 1500.08 430 1146 1.000 10000.000 0.000 -0.330
129 387.00 1500.08 438 1122 1.000 10000.000 0.000 -0.330
130 390.00 1500.08 453 1108 1.000 10000.000 0.000 -0.330
131 393.00 1500.08 435 1068 1.000 10000.000 0.000 -0.330
132 396.00 1500.08 427 1140 1.000 10000.000 0.000 -0.330
133 399.00 1500.08 414 1146 1.000 10000.000 0.000 -0.330
134 402.00 1500.08 471 1144 1.000 10000.000 0.000 -0.330
