# BinNR microsec tot-time (s)  O-Beam AUX Ampl(V) f(Hz) phase(deg) chi(pos)
0 0.00 1500.05 228 477 1.000 10000.000 0.000 -0.165
1 3.00 1500.05 414 924 1.000 10000.000 0.000 -0.165
2 6.00 1500.05 448 1036 1.000 10000.000 0.000 -0.165
3 9.00 1500.05 435 1043 1.000 10000.000 0.000 -0.165
4 12.00 1500.05 445 976 1.000 10000.000 0.000 -0.165
5 15.00 1500.05 442 1031 1.000 10000.000 0.000 -0.165
6 18.00 1500.05 491 1026 1.000 10000.000 0.000 -0.165
7 21.00 1500.05 406 1076 1.000 10000.000 0.000 -0.165
8 24.00 1500.05 409 1074 1.000 10000.000 0.000 -0.165
9 27.00 1500.05 419 1123 1.000 10000.000 0.000 -0.165
10 30.00 1500.05 429 1099 1.000 10000.000 0.000 -0.165
11 33.00 1500.05 435 1134 1.000 10000.000 0.000 -0.165
12 36.00 1500.05 421 1098 1.000 10000.000 0.000 -0.165
13 39.00 1500.05 434 1114 1.000 10000.000 0.000 -0.165
14 42.00 1500.05 427 1128 1.000 10000.000 0.000 -0.165
15 45.00 1500.05 420 1114 1.000 10000.000 0.000 -0.165
16 48.00 1500.05 445 1121 1.000 10000.000 0.000 -0.165
17 51.00 1500.05 408 1058 1.000 10000.000 0.000 -0.165
18 54.00 1500.05 475 1184 1.000 10000.000 0.000 -0.165
19 57.00 1500.05 442 1133 1.000 10000.000 0.000 -0.165
20 60.00 1500.05 447 1118 1.000 10000.000 0.000 -0.165
21 63.00 1500.05 413 1120 1.000 10000.000 0.000 -0.165
22 66.00 1500.05 438 1159 1.000 10000.000 0.000 -0.165
23 69.00 1500.05 421 1070 1.000 10000.000 0.000 -0.165
24 72.00 1500.05 448 1091 1.000 10000.000 0.000 -0.165
25 75.00 1500.05 447 1027 1.000 10000.000 0.000 -0.165
26 78.00 1500.05 457 1077 1.000 10000.000 0.000 -0.165
27 81.00 1500.05 435 985 1.000 10000.000 0.000 -0.165
28 84.00 1500.05 441 980 1.000 10000.000 0.000 -0.165
29 87.00 1500.05 414 1005 1.000 10000.000 0.000 -0.165
30 90.00 1500.05 442 937 1.000 10000.000 0.000 -0.165
31 93.00 1500.05 417 952 1.000 10000.000 0.000 -0.165
32 96.00 1500.05 417 949 1.000 10000.000 0.000 -0.165
33 99.00 1500.05 401 1010 1.000 10000.000 0.000 -0.165
34 102.00 1500.05 402 1020 1.000 10000.000 0.000 -0.165
35 105.00 1500.05 442 930 1.000 10000.000 0.000 -0.165
36 108.00 1500.05 409 979 1.000 10000.000 0.000 -0.165
37 111.00 1500.05 453 920 1.000 10000.000 0.000 -0.165
38 114.00 1500.05 421 986 1.000 10000.000 0.000 -0.165
39 117.00 1500.05 420 976 1.000 10000.000 0.000 -0.165
40 120.00 1500.05 468 1069 1.000 10000.000 0.000 -0.165
41 123.00 1500.05 449 1049 1.000 10000.000 0.000 -0.165
42 126.00 1500.05 414 1035 1.000 10000.000 0.000 -0.165
43 129.00 1500.05 464 1133 1.000 10000.000 0.000 -0.165
44 132.00 1500.05 513 1115 1.000 10000.000 0.000 -0.165
45 135.00 1500.05 407 1113 1.000 10000.000 0.000 -0.165
46 138.00 1500.05 464 1182 1.000 10000.000 0.000 -0.165
47 141.00 1500.05 454 1046 1.000 10000.000 0.000 -0.165
48 144.00 1500.05 442 1117 1.000 10000.000 0.000 -0.165
49 147.00 1500.05 429 1070 1.000 10000.000 0.000 -0.165
50 150.00 1500.05 449 1076 1.000 10000.000 0.000 -0.165
51 153.00 1500.05 395 1073 1.000 10000.000 0.000 -0.165
52 156.00 1500.05 453 1127 1.000 10000.000 0.000 -0.165
53 159.00 1500.05 429 1087 1.000 10000.000 0.000 -0.165
54 162.00 1500.05 416 1068 1.000 10000.000 0.000 -0.165
55 165.00 1500.05 428 1009 1.000 10000.000 0.000 -0.165
56 168.00 1500.05 417 1097 1.000 10000.000 0.000 -0.165
57 171.00 1500.05 444 1058 1.000 10000.000 0.000 -0.165
58 174.00 1500.05 421 1064 1.000 10000.000 0.000 -0.165
59 177.00 1500.05 426 1053 1.000 10000.000 0.000 -0.165
60 180.00 1500.05 431 1012 1.000 10000.000 0.000 -0.165
61 183.00 1500.05 415 1021 1.000 10000.000 0.000 -0.165
62 186.00 1500.05 431 1030 1.000 10000.000 0.000 -0.165
63 189.00 1500.05 415 979 1.000 10000.000 0.000 -0.165
64 192.00 1500.05 384 948 1.000 10000.000 0.000 -0.165
65 195.00 1500.05 370 965 1.000 10000.000 0.000 -0.165
66 198.00 1500.05 407 949 1.000 10000.000 0.000 -0.165
67 201.00 1500.05 413 969 1.000 10000.000 0.000 -0.165
68 204.00 1500.05 457 978 1.000 10000.000 0.000 -0.165
69 207.00 1500.05 454 970 1.000 10000.000 0.000 -0.165
70 210.00 1500.05 429 1000 1.000 10000.000 0.000 -0.165
71 213.00 1500.05 434 980 1.000 10000.000 0.000 -0.165
72 216.00 1500.05 434 1050 1.000 10000.000 0.000 -0.165
73 219.00 1500.05 472 1116 1.000 10000.000 0.000 -0.165
74 222.00 1500.05 425 1044 1.000 10000.000 0.000 -0.165
75 225.00 1500.05 401 1059 1.000 10000.000 0.000 -0.165
76 228.00 1500.05 424 1046 1.000 10000.000 0.000 -0.165
77 231.00 1500.05 428 1089 1.000 10000.000 0.000 -0.165
78 234.00 1500.05 423 1124 1.000 10000.000 0.000 -0.165
79 237.00 1500.05 443 1122 1.000 10000.000 0.000 -0.165
80 240.00 1500.05 428 1040 1.000 10000.000 0.000 -0.165
81 243.00 1500.05 448 1120 1.000 10000.000 0.000 -0.165
82 246.00 1500.05 437 1148 1.000 10000.000 0.000 -0.165
83 249.00 1500.05 423 1133 1.000 10000.000 0.000 -0.165
84 252.00 1500.05 410 1078 1.000 10000.000 0.000 -0.165
85 255.00 1500.05 420 1118 1.000 10000.000 0.000 -0.165
86 258.00 1500.05 452 1143 1.000 10000.000 0.000 -0.165
87 261.00 1500.05 425 1041 1.000 10000.000 0.000 -0.165
88 264.00 1500.05 448 1127 1.000 10000.000 0.000 -0.165
89 267.00 1500.05 434 1070 1.000 10000.000 0.000 -0.165
90 270.00 1500.05 435 1093 1.000 10000.000 0.000 -0.165
91 273.00 1500.05 403 1110 1.000 10000.000 0.000 -0.165
92 276.00 1500.05 435 1030 1.000 10000.000 0.000 -0.165
93 279.00 1500.05 450 1025 1.000 10000.000 0.000 -0.165
94 282.00 1500.05 429 1083 1.000 10000.000 0.000 -0.165
95 285.00 1500.05 423 955 1.000 10000.000 0.000 -0.165
96 288.00 1500.05 414 1006 1.000 10000.000 0.000 -0.165
97 291.00 1500.05 438 940 1.000 10000.000 0.000 -0.165
98 294.00 1500.05 393 985 1.000 10000.000 0.000 -0.165
99 297.00 1500.05 457 926 1.000 10000.000 0.000 -0.165
100 300.00 1500.05 444 966 1.000 10000.000 0.000 -0.165
101 303.00 1500.05 378 980 1.000 10000.000 0.000 -0.165
102 306.00 1500.05 494 925 1.000 10000.000 0.000 -0.165
103 309.00 1500.05 400 1030 1.000 10000.000 0.000 -0.165
104 312.00 1500.05 446 993 1.000 10000.000 0.000 -0.165
105 315.00 1500.05 433 1025 1.000 10000.000 0.000 -0.165
106 318.00 1500.05 451 999 1.000 10000.000 0.000 -0.165
107 321.00 1500.05 447 1040 1.000 10000.000 0.000 -0.165
108 324.00 1500.05 466 1084 1.000 10000.000 0.000 -0.165
109 327.00 1500.05 415 1048 1.000 10000.000 0.000 -0.165
110 330.00 1500.05 446 1087 1.000 10000.000 0.000 -0.165
111 333.00 1500.05 425 1065 1.000 10000.000 0.000 -0.165
112 336.00 1500.05 421 998 1.000 10000.000 0.000 -0.165
113 339.00 1500.05 399 1126 1.000 10000.000 0.000 -0.165
114 342.00 1500.05 448 1086 1.000 10000.000 0.000 -0.165
115 345.00 1500.05 449 1069 1.000 10000.000 0.000 -0.165
116 348.00 1500.05 470 1155 1.000 10000.000 0.000 -0.165
117 351.00 1500.05 431 1114 1.000 10000.000 0.000 -0.165
118 354.00 1500.05 430 1094 1.000 10000.000 0.000 -0.165
119 357.00 1500.05 457 1076 1.000 10000.000 0.000 -0.165
120 360.00 1500.05 432 1113 1.000 10000.000 0.000 -0.165
121 363.00 1500.05 428 1089 1.000 10000.000 0.000 -0.165
122 366.00 1500.05 434 1132 1.000 10000.000 0.000 -0.165
123 369.00 1500.05 461 1086 1.000 10000.000 0.000 -0.165
124 372.00 1500.05 418 1095 1.000 10000.000 0.000 -0.165
125 375.00 1500.05 431 1030 1.000 10000.000 0.000 -0.165
126 378.00 1500.05 432 1038 1.000 10000.000 0.000 -0.165
127 381.00 1500.05 417 975 1.000 10000.000 0.000 -0.165
128 384.00 1500.05 448 1012 1.000 10000.000 0.000 -0.165
129 387.00 1500.05 419 930 1.000 10000.000 0.000 -0.165
130 390.00 1500.05 419 1009 1.000 10000.000 0.000 -0.165
131 393.00 1500.05 435 986 1.000 10000.000 0.000 -0.165
132 396.00 1500.05 408 961 1.000 10000.000 0.000 -0.165
133 399.00 1500.05 424 959 1.000 10000.000 0.000 -0.165
134 402.00 1500.05 422 971 1.000 10000.000 0.000 -0.165
