# BinNR microsec tot-time (s)  O-Beam AUX Ampl(V) f(Hz) phase(deg) chi(pos)
0 0.00 1500.02 186 400 1.000 10000.000 0.000 0.000
1 3.00 1500.02 383 743 1.000 10000.000 0.000 0.000
2 6.00 1500.02 350 816 1.000 10000.000 0.000 0.000
3 9.00 1500.02 390 790 1.000 10000.000 0.000 0.000
4 12.00 1500.02 407 836 1.000 10000.000 0.000 0.000
5 15.00 1500.02 382 818 1.000 10000.000 0.000 0.000
6 18.00 1500.02 415 886 1.000 10000.000 0.000 0.000
7 21.00 1500.02 412 865 1.000 10000.000 0.000 0.000
8 24.00 1500.02 412 895 1.000 10000.000 0.000 0.000
9 27.00 1500.02 428 921 1.000 10000.000 0.000 0.000
10 30.00 1500.02 423 943 1.000 10000.000 0.000 0.000
11 33.00 1500.02 403 967 1.000 10000.000 0.000 0.000
12 36.00 1500.02 428 973 1.000 10000.000 0.000 0.000
13 39.00 1500.02 387 1000 1.000 10000.000 0.000 0.000
14 42.00 1500.02 445 970 1.000 10000.000 0.000 0.000
15 45.00 1500.02 427 911 1.000 10000.000 0.000 0.000
16 48.00 1500.02 406 936 1.000 10000.000 0.000 0.000
17 51.00 1500.02 431 973 1.000 10000.000 0.000 0.000
18 54.00 1500.02 404 928 1.000 10000.000 0.000 0.000
19 57.00 1500.02 444 956 1.000 10000.000 0.000 0.000
20 60.00 1500.02 428 958 1.000 10000.000 0.000 0.000
21 63.00 1500.02 404 920 1.000 10000.000 0.000 0.000
22 66.00 1500.02 426 878 1.000 10000.000 0.000 0.000
23 69.00 1500.02 412 901 1.000 10000.000 0.000 0.000
24 72.00 1500.02 410 884 1.000 10000.000 0.000 0.000
25 75.00 1500.02 393 839 1.000 10000.000 0.000 0.000
26 78.00 1500.02 388 854 1.000 10000.000 0.000 0.000
27 81.00 1500.02 359 806 1.000 10000.000 0.000 0.000
28 84.00 1500.02 377 748 1.000 10000.000 0.000 0.000
29 87.00 1500.02 360 786 1.000 10000.000 0.000 0.000
30 90.00 1500.02 371 763 1.000 10000.000 0.000 0.000
31 93.00 1500.02 369 731 1.000 10000.000 0.000 0.000
32 96.00 1500.02 373 741 1.000 10000.000 0.000 0.000
33 99.00 1500.02 336 686 1.000 10000.000 0.000 0.000
34 102.00 1500.02 373 738 1.000 10000.000 0.000 0.000
35 105.00 1500.02 374 714 1.000 10000.000 0.000 0.000
36 108.00 1500.02 361 739 1.000 10000.000 0.000 0.000
37 111.00 1500.02 335 746 1.000 10000.000 0.000 0.000
38 114.00 1500.02 354 841 1.000 10000.000 0.000 0.000
39 117.00 1500.02 427 823 1.000 10000.000 0.000 0.000
40 120.00 1500.02 431 865 1.000 10000.000 0.000 0.000
41 123.00 1500.02 411 815 1.000 10000.000 0.000 0.000
42 126.00 1500.02 427 836 1.000 10000.000 0.000 0.000
43 129.00 1500.02 395 928 1.000 10000.000 0.000 0.000
44 132.00 1500.02 396 977 1.000 10000.000 0.000 0.000
45 135.00 1500.02 400 985 1.000 10000.000 0.000 0.000
46 138.00 1500.02 469 966 1.000 10000.000 0.000 0.000
47 141.00 1500.02 436 1028 1.000 10000.000 0.000 0.000
48 144.00 1500.02 414 1013 1.000 10000.000 0.000 0.000
49 147.00 1500.02 423 963 1.000 10000.000 0.000 0.000
50 150.00 1500.02 384 1015 1.000 10000.000 0.000 0.000
51 153.00 1500.02 430 1014 1.000 10000.000 0.000 0.000
52 156.00 1500.02 436 982 1.000 10000.000 0.000 0.000
53 159.00 1500.02 383 968 1.000 10000.000 0.000 0.000
54 162.00 1500.02 397 915 1.000 10000.000 0.000 0.000
55 165.00 1500.02 404 931 1.000 10000.000 0.000 0.000
56 168.00 1500.02 393 865 1.000 10000.000 0.000 0.000
57 171.00 1500.02 364 842 1.000 10000.000 0.000 0.000
58 174.00 1500.02 447 825 1.000 10000.000 0.000 0.000
59 177.00 1500.02 374 808 1.000 10000.000 0.000 0.000
60 180.00 1500.02 390 804 1.000 10000.000 0.000 0.000
61 183.00 1500.02 383 775 1.000 10000.000 0.000 0.000
62 186.00 1500.02 379 761 1.000 10000.000 0.000 0.000
63 189.00 1500.02 340 719 1.000 10000.000 0.000 0.000
64 192.00 1500.02 406 711 1.000 10000.000 0.000 0.000
65 195.00 1500.02 360 716 1.000 10000.000 0.000 0.000
66 198.00 1500.02 362 703 1.000 10000.000 0.000 0.000
67 201.00 1500.02 362 713 1.000 10000.000 0.000 0.000
68 204.00 1500.02 412 754 1.000 10000.000 0.000 0.000
69 207.00 1500.02 372 777 1.000 10000.000 0.000 0.000
70 210.00 1500.02 422 813 1.000 10000.000 0.000 0.000
71 213.00 1500.02 368 766 1.000 10000.000 0.000 0.000
72 216.00 1500.02 366 849 1.000 10000.000 0.000 0.000
73 219.00 1500.02 403 807 1.000 10000.000 0.000 0.000
74 222.00 1500.02 428 849 1.000 10000.000 0.000 0.000
75 225.00 1500.02 386 863 1.000 10000.000 0.000 0.000
76 228.00 1500.02 429 946 1.000 10000.000 0.000 0.000
77 231.00 1500.02 436 929 1.000 10000.000 0.000 0.000
78 234.00 1500.02 444 938 1.000 10000.000 0.000 0.000
79 237.00 1500.02 425 928 1.000 10000.000 0.000 0.000
80 240.00 1500.02 468 1000 1.000 10000.000 0.000 0.000
81 243.00 1500.02 426 1004 1.000 10000.000 0.000 0.000
82 246.00 1500.02 409 1014 1.000 10000.000 0.000 0.000
83 249.00 1500.02 434 980 1.000 10000.000 0.000 0.000
84 252.00 1500.02 416 1019 1.000 10000.000 0.000 0.000
85 255.00 1500.02 436 985 1.000 10000.000 0.000 0.000
86 258.00 1500.02 407 974 1.000 10000.000 0.000 0.000
87 261.00 1500.02 410 936 1.000 10000.000 0.000 0.000
88 264.00 1500.02 412 924 1.000 10000.000 0.000 0.000
89 267.00 1500.02 430 889 1.000 10000.000 0.000 0.000
90 270.00 1500.02 418 925 1.000 10000.000 0.000 0.000
91 273.00 1500.02 385 887 1.000 10000.000 0.000 0.000
92 276.00 1500.02 398 858 1.000 10000.000 0.000 0.000
93 279.00 1500.02 374 832 1.000 10000.000 0.000 0.000
94 282.00 1500.02 405 861 1.000 10000.000 0.000 0.000
95 285.00 1500.02 334 791 1.000 10000.000 0.000 0.000
96 288.00 1500.02 365 724 1.000 10000.000 0.000 0.000
97 291.00 1500.02 359 700 1.000 10000.000 0.000 0.000
98 294.00 1500.02 411 800 1.000 10000.000 0.000 0.000
99 297.00 1500.02 391 670 1.000 10000.000 0.000 0.000
100 300.00 1500.02 389 707 1.000 10000.000 0.000 0.000
101 303.00 1500.02 382 705 1.000 10000.000 0.000 0.000
102 306.00 1500.02 395 740 1.000 10000.000 0.000 0.000
103 309.00 1500.02 355 741 1.000 10000.000 0.000 0.000
104 312.00 1500.02 385 806 1.000 10000.000 0.000 0.000
105 315.00 1500.02 406 827 1.000 10000.000 0.000 0.000
106 318.00 1500.02 375 814 1.000 10000.000 0.000 0.000
107 321.00 1500.02 392 880 1.000 10000.000 0.000 0.000
108 324.00 1500.02 422 926 1.000 10000.000 0.000 0.000
109 327.00 1500.02 384 918 1.000 10000.000 0.000 0.000
110 330.00 1500.02 403 957 1.000 10000.000 0.000 0.000
111 333.00 1500.02 398 946 1.000 10000.000 0.000 0.000
112 336.00 1500.02 396 978 1.000 10000.000 0.000 0.000
113 339.00 1500.02 408 975 1.000 10000.000 0.000 0.000
114 342.00 1500.02 440 1014 1.000 10000.000 0.000 0.000
115 345.00 1500.02 434 980 1.000 10000.000 0.000 0.000
116 348.00 1500.02 425 1013 1.000 10000.000 0.000 0.000
117 351.00 1500.02 403 1031 1.000 10000.000 0.000 0.000
118 354.00 1500.02 439 1030 1.000 10000.000 0.000 0.000
119 357.00 1500.02 423 993 1.000 10000.000 0.000 0.000
120 360.00 1500.02 410 914 1.000 10000.000 0.000 0.000
121 363.00 1500.02 434 958 1.000 10000.000 0.000 0.000
122 366.00 1500.02 432 942 1.000 10000.000 0.000 0.000
123 369.00 1500.02 442 862 1.000 10000.000 0.000 0.000
124 372.00 1500.02 419 868 1.000 10000.000 0.000 0.000
125 375.00 1500.02 363 794 1.000 10000.000 0.000 0.000
126 378.00 1500.02 355 812 1.000 10000.000 0.000 0.000
127 381.00 1500.02 374 773 1.000 10000.000 0.000 0.000
128 384.00 1500.02 355 775 1.000 10000.000 0.000 0.000
129 387.00 1500.02 381 666 1.000 10000.000 0.000 0.000
130 390.00 1500.02 371 753 1.000 10000.000 0.000 0.000
131 393.00 1500.02 364 747 1.000 10000.000 0.000 0.000
132 396.00 1500.02 378 757 1.000 10000.000 0.000 0.000
133 399.00 1500.02 377 738 1.000 10000.000 0.000 0.000
134 402.00 1500.02 351 726 1.000 10000.000 0.000 0.000
