# BinNR microsec tot-time (s)  O-Beam AUX Ampl(V) f(Hz) phase(deg) chi(pos)
0 0.00 1500.04 96 343 1.000 10000.000 0.000 1.176
1 3.00 1500.04 223 680 1.000 10000.000 0.000 1.176
2 6.00 1500.04 196 648 1.000 10000.000 0.000 1.176
3 9.00 1500.04 214 665 1.000 10000.000 0.000 1.176
4 12.00 1500.04 177 636 1.000 10000.000 0.000 1.176
5 15.00 1500.04 205 602 1.000 10000.000 0.000 1.176
6 18.00 1500.04 154 515 1.000 10000.000 0.000 1.176
7 21.00 1500.04 168 501 1.000 10000.000 0.000 1.176
8 24.00 1500.04 170 477 1.000 10000.000 0.000 1.176
9 27.00 1500.04 168 470 1.000 10000.000 0.000 1.176
10 30.00 1500.04 141 417 1.000 10000.000 0.000 1.176
11 33.00 1500.04 146 436 1.000 10000.000 0.000 1.176
12 36.00 1500.04 158 418 1.000 10000.000 0.000 1.176
13 39.00 1500.04 101 359 1.000 10000.000 0.000 1.176
14 42.00 1500.04 139 421 1.000 10000.000 0.000 1.176
15 45.00 1500.04 141 438 1.000 10000.000 0.000 1.176
16 48.00 1500.04 154 416 1.000 10000.000 0.000 1.176
17 51.00 1500.04 118 433 1.000 10000.000 0.000 1.176
18 54.00 1500.04 149 420 1.000 10000.000 0.000 1.176
19 57.00 1500.04 146 460 1.000 10000.000 0.000 1.176
20 60.00 1500.04 136 424 1.000 10000.000 0.000 1.176
21 63.00 1500.04 168 444 1.000 10000.000 0.000 1.176
22 66.00 1500.04 169 473 1.000 10000.000 0.000 1.176
23 69.00 1500.04 164 475 1.000 10000.000 0.000 1.176
24 72.00 1500.04 174 562 1.000 10000.000 0.000 1.176
25 75.00 1500.04 198 586 1.000 10000.000 0.000 1.176
26 78.00 1500.04 188 595 1.000 10000.000 0.000 1.176
27 81.00 1500.04 206 653 1.000 10000.000 0.000 1.176
28 84.00 1500.04 226 698 1.000 10000.000 0.000 1.176
29 87.00 1500.04 221 650 1.000 10000.000 0.000 1.176
30 90.00 1500.04 204 664 1.000 10000.000 0.000 1.176
31 93.00 1500.04 224 649 1.000 10000.000 0.000 1.176
32 96.00 1500.04 240 749 1.000 10000.000 0.000 1.176
33 99.00 1500.04 197 715 1.000 10000.000 0.000 1.176
34 102.00 1500.04 200 702 1.000 10000.000 0.000 1.176
35 105.00 1500.04 183 678 1.000 10000.000 0.000 1.176
36 108.00 1500.04 178 666 1.000 10000.000 0.000 1.176
37 111.00 1500.04 207 662 1.000 10000.000 0.000 1.176
38 114.00 1500.04 194 630 1.000 10000.000 0.000 1.176
39 117.00 1500.04 171 585 1.000 10000.000 0.000 1.176
40 120.00 1500.04 162 578 1.000 10000.000 0.000 1.176
41 123.00 1500.04 154 520 1.000 10000.000 0.000 1.176
42 126.00 1500.04 154 483 1.000 10000.000 0.000 1.176
43 129.00 1500.04 139 474 1.000 10000.000 0.000 1.176
44 132.00 1500.04 139 454 1.000 10000.000 0.000 1.176
45 135.00 1500.04 146 479 1.000 10000.000 0.000 1.176
46 138.00 1500.04 122 462 1.000 10000.000 0.000 1.176
47 141.00 1500.04 119 406 1.000 10000.000 0.000 1.176
48 144.00 1500.04 159 414 1.000 10000.000 0.000 1.176
49 147.00 1500.04 136 409 1.000 10000.000 0.000 1.176
50 150.00 1500.04 152 412 1.000 10000.000 0.000 1.176
51 153.00 1500.04 125 385 1.000 10000.000 0.000 1.176
52 156.00 1500.04 144 429 1.000 10000.000 0.000 1.176
53 159.00 1500.04 162 424 1.000 10000.000 0.000 1.176
54 162.00 1500.04 161 424 1.000 10000.000 0.000 1.176
55 165.00 1500.04 160 447 1.000 10000.000 0.000 1.176
56 168.00 1500.04 180 495 1.000 10000.000 0.000 1.176
57 171.00 1500.04 157 539 1.000 10000.000 0.000 1.176
58 174.00 1500.04 182 589 1.000 10000.000 0.000 1.176
59 177.00 1500.04 200 568 1.000 10000.000 0.000 1.176
60 180.00 1500.04 189 631 1.000 10000.000 0.000 1.176
61 183.00 1500.04 228 632 1.000 10000.000 0.000 1.176
62 186.00 1500.04 203 629 1.000 10000.000 0.000 1.176
63 189.00 1500.04 197 695 1.000 10000.000 0.000 1.176
64 192.00 1500.04 226 699 1.000 10000.000 0.000 1.176
65 195.00 1500.04 201 702 1.000 10000.000 0.000 1.176
66 198.00 1500.04 222 704 1.000 10000.000 0.000 1.176
67 201.00 1500.04 194 708 1.000 10000.000 0.000 1.176
68 204.00 1500.04 206 651 1.000 10000.000 0.000 1.176
69 207.00 1500.04 199 652 1.000 10000.000 0.000 1.176
70 210.00 1500.04 182 622 1.000 10000.000 0.000 1.176
71 213.00 1500.04 169 626 1.000 10000.000 0.000 1.176
72 216.00 1500.04 200 631 1.000 10000.000 0.000 1.176
73 219.00 1500.04 168 582 1.000 10000.000 0.000 1.176
74 222.00 1500.04 167 586 1.000 10000.000 0.000 1.176
75 225.00 1500.04 183 500 1.000 10000.000 0.000 1.176
76 228.00 1500.04 156 485 1.000 10000.000 0.000 1.176
77 231.00 1500.04 141 479 1.000 10000.000 0.000 1.176
78 234.00 1500.04 132 459 1.000 10000.000 0.000 1.176
79 237.00 1500.04 131 408 1.000 10000.000 0.000 1.176
80 240.00 1500.04 134 402 1.000 10000.000 0.000 1.176
81 243.00 1500.04 136 387 1.000 10000.000 0.000 1.176
82 246.00 1500.04 118 342 1.000 10000.000 0.000 1.176
83 249.00 1500.04 130 379 1.000 10000.000 0.000 1.176
84 252.00 1500.04 115 407 1.000 10000.000 0.000 1.176
85 255.00 1500.04 117 392 1.000 10000.000 0.000 1.176
86 258.00 1500.04 161 433 1.000 10000.000 0.000 1.176
87 261.00 1500.04 167 400 1.000 10000.000 0.000 1.176
88 264.00 1500.04 165 497 1.000 10000.000 0.000 1.176
89 267.00 1500.04 142 495 1.000 10000.000 0.000 1.176
90 270.00 1500.04 204 532 1.000 10000.000 0.000 1.176
91 273.00 1500.04 178 549 1.000 10000.000 0.000 1.176
92 276.00 1500.04 183 610 1.000 10000.000 0.000 1.176
93 279.00 1500.04 226 609 1.000 10000.000 0.000 1.176
94 282.00 1500.04 203 644 1.000 10000.000 0.000 1.176
95 285.00 1500.04 200 699 1.000 10000.000 0.000 1.176
96 288.00 1500.04 221 708 1.000 10000.000 0.000 1.176
97 291.00 1500.04 213 707 1.000 10000.000 0.000 1.176
98 294.00 1500.04 256 681 1.000 10000.000 0.000 1.176
99 297.00 1500.04 211 685 1.000 10000.000 0.000 1.176
100 300.00 1500.04 216 683 1.000 10000.000 0.000 1.176
101 303.00 1500.04 218 687 1.000 10000.000 0.000 1.176
102 306.00 1500.04 215 715 1.000 10000.000 0.000 1.176
103 309.00 1500.04 199 602 1.000 10000.000 0.000 1.176
104 312.00 1500.04 195 652 1.000 10000.000 0.000 1.176
105 315.00 1500.04 182 568 1.000 10000.000 0.000 1.176
106 318.00 1500.04 177 601 1.000 10000.000 0.000 1.176
107 321.00 1500.04 163 545 1.000 10000.000 0.000 1.176
108 324.00 1500.04 160 516 1.000 10000.000 0.000 1.176
109 327.00 1500.04 139 491 1.000 10000.000 0.000 1.176
110 330.00 1500.04 172 479 1.000 10000.000 0.000 1.176
111 333.00 1500.04 156 400 1.000 10000.000 0.000 1.176
112 336.00 1500.04 148 458 1.000 10000.000 0.000 1.176
113 339.00 1500.04 132 377 1.000 10000.000 0.000 1.176
114 342.00 1500.04 132 391 1.000 10000.000 0.000 1.176
115 345.00 1500.04 139 371 1.000 10000.000 0.000 1.176
116 348.00 1500.04 127 400 1.000 10000.000 0.000 1.176
117 351.00 1500.04 161 364 1.000 10000.000 0.000 1.176
118 354.00 1500.04 127 434 1.000 10000.000 0.000 1.176
119 357.00 1500.04 124 373 1.000 10000.000 0.000 1.176
120 360.00 1500.04 165 416 1.000 10000.000 0.000 1.176
121 363.00 1500.04 131 483 1.000 10000.000 0.000 1.176
122 366.00 1500.04 150 460 1.000 10000.000 0.000 1.176
123 369.00 1500.04 155 539 1.000 10000.000 0.000 1.176
124 372.00 1500.04 175 589 1.000 10000.000 0.000 1.176
125 375.00 1500.04 183 537 1.000 10000.000 0.000 1.176
126 378.00 1500.04 179 620 1.000 10000.000 0.000 1.176
127 381.00 1500.04 195 605 1.000 10000.000 0.000 1.176
128 384.00 1500.04 207 690 1.000 10000.000 0.000 1.176
129 387.00 1500.04 177 644 1.000 10000.000 0.000 1.176
130 390.00 1500.04 230 712 1.000 10000.000 0.000 1.176
131 393.00 1500.04 214 727 1.000 10000.000 0.000 1.176
132 396.00 1500.04 241 748 1.000 10000.000 0.000 1.176
133 399.00 1500.04 199 661 1.000 10000.000 0.000 1.176
134 402.00 1500.04 235 684 1.000 10000.000 0.000 1.176
