# BinNR microsec tot-time (s)  O-Beam AUX Ampl_1(V) f_1(Hz) phase_1(deg) Ampl_2(V) f_2(Hz) phase_2(deg) chi(pos)
0 0.00 1200.01 104 390 0.868 3.100 10000.000 0.000
1 3.00 1200.01 228 832 0.868 3.100 10000.000 0.000
2 6.00 1200.01 201 859 0.868 3.100 10000.000 0.000
3 9.00 1200.01 210 778 0.868 3.100 10000.000 0.000
4 12.00 1200.01 179 846 0.868 3.100 10000.000 0.000
5 15.00 1200.01 210 739 0.868 3.100 10000.000 0.000
6 18.00 1200.01 173 855 0.868 3.100 10000.000 0.000
7 21.00 1200.01 186 824 0.868 3.100 10000.000 0.000
8 24.00 1200.01 159 814 0.868 3.100 10000.000 0.000
9 27.00 1200.01 183 864 0.868 3.100 10000.000 0.000
10 30.00 1200.01 189 810 0.868 3.100 10000.000 0.000
11 33.00 1200.01 182 806 0.868 3.100 10000.000 0.000
12 36.00 1200.01 176 845 0.868 3.100 10000.000 0.000
13 39.00 1200.01 209 820 0.868 3.100 10000.000 0.000
14 42.00 1200.01 211 827 0.868 3.100 10000.000 0.000
15 45.00 1200.01 228 826 0.868 3.100 10000.000 0.000
16 48.00 1200.01 240 828 0.868 3.100 10000.000 0.000
17 51.00 1200.01 237 758 0.868 3.100 10000.000 0.000
18 54.00 1200.01 285 831 0.868 3.100 10000.000 0.000
19 57.00 1200.01 280 785 0.868 3.100 10000.000 0.000
20 60.00 1200.01 274 807 0.868 3.100 10000.000 0.000
21 63.00 1200.01 278 802 0.868 3.100 10000.000 0.000
22 66.00 1200.01 299 841 0.868 3.100 10000.000 0.000
23 69.00 1200.01 287 818 0.868 3.100 10000.000 0.000
24 72.00 1200.01 322 885 0.868 3.100 10000.000 0.000
25 75.00 1200.01 314 884 0.868 3.100 10000.000 0.000
26 78.00 1200.01 346 922 0.868 3.100 10000.000 0.000
27 81.00 1200.01 336 906 0.868 3.100 10000.000 0.000
28 84.00 1200.01 317 1014 0.868 3.100 10000.000 0.000
29 87.00 1200.01 293 944 0.868 3.100 10000.000 0.000
30 90.00 1200.01 262 1008 0.868 3.100 10000.000 0.000
31 93.00 1200.01 264 941 0.868 3.100 10000.000 0.000
32 96.00 1200.01 255 965 0.868 3.100 10000.000 0.000
33 99.00 1200.01 247 886 0.868 3.100 10000.000 0.000
34 102.00 1200.01 229 792 0.868 3.100 10000.000 0.000
35 105.00 1200.01 226 803 0.868 3.100 10000.000 0.000
36 108.00 1200.01 200 702 0.868 3.100 10000.000 0.000
37 111.00 1200.01 203 620 0.868 3.100 10000.000 0.000
38 114.00 1200.01 205 566 0.868 3.100 10000.000 0.000
39 117.00 1200.01 167 598 0.868 3.100 10000.000 0.000
40 120.00 1200.01 162 522 0.868 3.100 10000.000 0.000
41 123.00 1200.01 177 577 0.868 3.100 10000.000 0.000
42 126.00 1200.01 186 560 0.868 3.100 10000.000 0.000
43 129.00 1200.01 172 570 0.868 3.100 10000.000 0.000
44 132.00 1200.01 194 567 0.868 3.100 10000.000 0.000
45 135.00 1200.01 183 598 0.868 3.100 10000.000 0.000
46 138.00 1200.01 227 625 0.868 3.100 10000.000 0.000
47 141.00 1200.01 222 703 0.868 3.100 10000.000 0.000
48 144.00 1200.01 202 695 0.868 3.100 10000.000 0.000
49 147.00 1200.01 247 726 0.868 3.100 10000.000 0.000
50 150.00 1200.01 262 764 0.868 3.100 10000.000 0.000
51 153.00 1200.01 251 846 0.868 3.100 10000.000 0.000
52 156.00 1200.01 283 892 0.868 3.100 10000.000 0.000
53 159.00 1200.01 275 881 0.868 3.100 10000.000 0.000
54 162.00 1200.01 288 908 0.868 3.100 10000.000 0.000
55 165.00 1200.01 319 964 0.868 3.100 10000.000 0.000
56 168.00 1200.01 289 970 0.868 3.100 10000.000 0.000
57 171.00 1200.01 269 1005 0.868 3.100 10000.000 0.000
58 174.00 1200.01 286 1027 0.868 3.100 10000.000 0.000
59 177.00 1200.01 283 1010 0.868 3.100 10000.000 0.000
60 180.00 1200.01 260 1040 0.868 3.100 10000.000 0.000
61 183.00 1200.01 251 958 0.868 3.100 10000.000 0.000
62 186.00 1200.01 250 989 0.868 3.100 10000.000 0.000
63 189.00 1200.01 235 976 0.868 3.100 10000.000 0.000
64 192.00 1200.01 265 947 0.868 3.100 10000.000 0.000
65 195.00 1200.01 230 884 0.868 3.100 10000.000 0.000
66 198.00 1200.01 253 859 0.868 3.100 10000.000 0.000
67 201.00 1200.01 237 747 0.868 3.100 10000.000 0.000
68 204.00 1200.01 252 807 0.868 3.100 10000.000 0.000
69 207.00 1200.01 236 678 0.868 3.100 10000.000 0.000
70 210.00 1200.01 274 677 0.868 3.100 10000.000 0.000
71 213.00 1200.01 250 682 0.868 3.100 10000.000 0.000
72 216.00 1200.01 232 631 0.868 3.100 10000.000 0.000
73 219.00 1200.01 223 582 0.868 3.100 10000.000 0.000
74 222.00 1200.01 245 586 0.868 3.100 10000.000 0.000
75 225.00 1200.01 249 536 0.868 3.100 10000.000 0.000
76 228.00 1200.01 261 544 0.868 3.100 10000.000 0.000
77 231.00 1200.01 265 586 0.868 3.100 10000.000 0.000
78 234.00 1200.01 267 610 0.868 3.100 10000.000 0.000
79 237.00 1200.01 261 622 0.868 3.100 10000.000 0.000
80 240.00 1200.01 252 660 0.868 3.100 10000.000 0.000
81 243.00 1200.01 250 645 0.868 3.100 10000.000 0.000
82 246.00 1200.01 258 734 0.868 3.100 10000.000 0.000
83 249.00 1200.01 262 750 0.868 3.100 10000.000 0.000
84 252.00 1200.01 254 776 0.868 3.100 10000.000 0.000
85 255.00 1200.01 238 869 0.868 3.100 10000.000 0.000
86 258.00 1200.01 259 984 0.868 3.100 10000.000 0.000
87 261.00 1200.01 211 898 0.868 3.100 10000.000 0.000
88 264.00 1200.01 227 1005 0.868 3.100 10000.000 0.000
89 267.00 1200.01 244 992 0.868 3.100 10000.000 0.000
90 270.00 1200.01 248 992 0.868 3.100 10000.000 0.000
91 273.00 1200.01 251 981 0.868 3.100 10000.000 0.000
92 276.00 1200.01 258 957 0.868 3.100 10000.000 0.000
93 279.00 1200.01 253 904 0.868 3.100 10000.000 0.000
94 282.00 1200.01 275 859 0.868 3.100 10000.000 0.000
95 285.00 1200.01 260 872 0.868 3.100 10000.000 0.000
96 288.00 1200.01 213 807 0.868 3.100 10000.000 0.000
97 291.00 1200.01 273 764 0.868 3.100 10000.000 0.000
98 294.00 1200.01 270 753 0.868 3.100 10000.000 0.000
99 297.00 1200.01 244 736 0.868 3.100 10000.000 0.000
100 300.00 1200.01 276 778 0.868 3.100 10000.000 0.000
101 303.00 1200.01 248 836 0.868 3.100 10000.000 0.000
102 306.00 1200.01 263 843 0.868 3.100 10000.000 0.000
103 309.00 1200.01 248 835 0.868 3.100 10000.000 0.000
104 312.00 1200.01 250 813 0.868 3.100 10000.000 0.000
105 315.00 1200.01 264 836 0.868 3.100 10000.000 0.000
106 318.00 1200.01 244 848 0.868 3.100 10000.000 0.000
107 321.00 1200.01 267 810 0.868 3.100 10000.000 0.000
108 324.00 1200.01 261 844 0.868 3.100 10000.000 0.000
109 327.00 1200.01 271 769 0.868 3.100 10000.000 0.000
110 330.00 1200.01 245 771 0.868 3.100 10000.000 0.000
111 333.00 1200.01 241 795 0.868 3.100 10000.000 0.000
112 336.00 1200.01 253 826 0.868 3.100 10000.000 0.000
113 339.00 1200.01 256 807 0.868 3.100 10000.000 0.000
114 342.00 1200.01 243 837 0.868 3.100 10000.000 0.000
115 345.00 1200.01 231 836 0.868 3.100 10000.000 0.000
116 348.00 1200.01 259 892 0.868 3.100 10000.000 0.000
117 351.00 1200.01 244 761 0.868 3.100 10000.000 0.000
118 354.00 1200.01 269 770 0.868 3.100 10000.000 0.000
119 357.00 1200.01 252 760 0.868 3.100 10000.000 0.000
120 360.00 1200.01 267 785 0.868 3.100 10000.000 0.000
121 363.00 1200.01 251 776 0.868 3.100 10000.000 0.000
122 366.00 1200.01 259 853 0.868 3.100 10000.000 0.000
123 369.00 1200.01 250 792 0.868 3.100 10000.000 0.000
124 372.00 1200.01 254 835 0.868 3.100 10000.000 0.000
125 375.00 1200.01 289 795 0.868 3.100 10000.000 0.000
126 378.00 1200.01 277 817 0.868 3.100 10000.000 0.000
127 381.00 1200.01 281 831 0.868 3.100 10000.000 0.000
128 384.00 1200.01 304 826 0.868 3.100 10000.000 0.000
129 387.00 1200.01 280 842 0.868 3.100 10000.000 0.000
130 390.00 1200.01 302 863 0.868 3.100 10000.000 0.000
131 393.00 1200.01 284 802 0.868 3.100 10000.000 0.000
132 396.00 1200.01 288 844 0.868 3.100 10000.000 0.000
133 399.00 1200.01 272 787 0.868 3.100 10000.000 0.000
134 402.00 1200.01 244 787 0.868 3.100 10000.000 0.000
