# BinNR microsec tot-time (s)  O-Beam AUX Ampl(V) f(Hz) phase(deg) chi(pos)
0 0.00 1200.01 148 352 2.000 10000.000 0.000 -1.296
1 3.00 1200.01 302 770 2.000 10000.000 0.000 -1.296
2 6.00 1200.01 307 858 2.000 10000.000 0.000 -1.296
3 9.00 1200.01 288 858 2.000 10000.000 0.000 -1.296
4 12.00 1200.01 357 929 2.000 10000.000 0.000 -1.296
5 15.00 1200.01 367 1024 2.000 10000.000 0.000 -1.296
6 18.00 1200.01 361 1044 2.000 10000.000 0.000 -1.296
7 21.00 1200.01 378 1098 2.000 10000.000 0.000 -1.296
8 24.00 1200.01 390 1173 2.000 10000.000 0.000 -1.296
9 27.00 1200.01 404 1257 2.000 10000.000 0.000 -1.296
10 30.00 1200.01 424 1258 2.000 10000.000 0.000 -1.296
11 33.00 1200.01 457 1265 2.000 10000.000 0.000 -1.296
12 36.00 1200.01 423 1300 2.000 10000.000 0.000 -1.296
13 39.00 1200.01 419 1246 2.000 10000.000 0.000 -1.296
14 42.00 1200.01 436 1289 2.000 10000.000 0.000 -1.296
15 45.00 1200.01 471 1216 2.000 10000.000 0.000 -1.296
16 48.00 1200.01 446 1365 2.000 10000.000 0.000 -1.296
17 51.00 1200.01 435 1253 2.000 10000.000 0.000 -1.296
18 54.00 1200.01 443 1287 2.000 10000.000 0.000 -1.296
19 57.00 1200.01 384 1302 2.000 10000.000 0.000 -1.296
20 60.00 1200.01 410 1345 2.000 10000.000 0.000 -1.296
21 63.00 1200.01 419 1337 2.000 10000.000 0.000 -1.296
22 66.00 1200.01 385 1261 2.000 10000.000 0.000 -1.296
23 69.00 1200.01 328 1229 2.000 10000.000 0.000 -1.296
24 72.00 1200.01 381 1207 2.000 10000.000 0.000 -1.296
25 75.00 1200.01 332 1141 2.000 10000.000 0.000 -1.296
26 78.00 1200.01 298 1079 2.000 10000.000 0.000 -1.296
27 81.00 1200.01 282 980 2.000 10000.000 0.000 -1.296
28 84.00 1200.01 275 945 2.000 10000.000 0.000 -1.296
29 87.00 1200.01 255 827 2.000 10000.000 0.000 -1.296
30 90.00 1200.01 263 793 2.000 10000.000 0.000 -1.296
31 93.00 1200.01 244 716 2.000 10000.000 0.000 -1.296
32 96.00 1200.01 275 719 2.000 10000.000 0.000 -1.296
33 99.00 1200.01 279 727 2.000 10000.000 0.000 -1.296
34 102.00 1200.01 264 690 2.000 10000.000 0.000 -1.296
35 105.00 1200.01 294 721 2.000 10000.000 0.000 -1.296
36 108.00 1200.01 317 748 2.000 10000.000 0.000 -1.296
37 111.00 1200.01 332 761 2.000 10000.000 0.000 -1.296
38 114.00 1200.01 326 931 2.000 10000.000 0.000 -1.296
39 117.00 1200.01 346 934 2.000 10000.000 0.000 -1.296
40 120.00 1200.01 373 1038 2.000 10000.000 0.000 -1.296
41 123.00 1200.01 384 1076 2.000 10000.000 0.000 -1.296
42 126.00 1200.01 407 1250 2.000 10000.000 0.000 -1.296
43 129.00 1200.01 381 1183 2.000 10000.000 0.000 -1.296
44 132.00 1200.01 424 1300 2.000 10000.000 0.000 -1.296
45 135.00 1200.01 393 1231 2.000 10000.000 0.000 -1.296
46 138.00 1200.01 422 1296 2.000 10000.000 0.000 -1.296
47 141.00 1200.01 427 1251 2.000 10000.000 0.000 -1.296
48 144.00 1200.01 463 1316 2.000 10000.000 0.000 -1.296
49 147.00 1200.01 439 1278 2.000 10000.000 0.000 -1.296
50 150.00 1200.01 404 1318 2.000 10000.000 0.000 -1.296
51 153.00 1200.01 412 1241 2.000 10000.000 0.000 -1.296
52 156.00 1200.01 426 1305 2.000 10000.000 0.000 -1.296
53 159.00 1200.01 391 1308 2.000 10000.000 0.000 -1.296
54 162.00 1200.01 444 1335 2.000 10000.000 0.000 -1.296
55 165.00 1200.01 347 1297 2.000 10000.000 0.000 -1.296
56 168.00 1200.01 403 1270 2.000 10000.000 0.000 -1.296
57 171.00 1200.01 342 1263 2.000 10000.000 0.000 -1.296
58 174.00 1200.01 339 1120 2.000 10000.000 0.000 -1.296
59 177.00 1200.01 332 1089 2.000 10000.000 0.000 -1.296
60 180.00 1200.01 302 1036 2.000 10000.000 0.000 -1.296
61 183.00 1200.01 284 897 2.000 10000.000 0.000 -1.296
62 186.00 1200.01 259 876 2.000 10000.000 0.000 -1.296
63 189.00 1200.01 270 742 2.000 10000.000 0.000 -1.296
64 192.00 1200.01 260 750 2.000 10000.000 0.000 -1.296
65 195.00 1200.01 242 738 2.000 10000.000 0.000 -1.296
66 198.00 1200.01 277 690 2.000 10000.000 0.000 -1.296
67 201.00 1200.01 246 673 2.000 10000.000 0.000 -1.296
68 204.00 1200.01 266 726 2.000 10000.000 0.000 -1.296
69 207.00 1200.01 295 782 2.000 10000.000 0.000 -1.296
70 210.00 1200.01 276 779 2.000 10000.000 0.000 -1.296
71 213.00 1200.01 320 881 2.000 10000.000 0.000 -1.296
72 216.00 1200.01 319 939 2.000 10000.000 0.000 -1.296
73 219.00 1200.01 357 978 2.000 10000.000 0.000 -1.296
74 222.00 1200.01 392 1123 2.000 10000.000 0.000 -1.296
75 225.00 1200.01 380 1140 2.000 10000.000 0.000 -1.296
76 228.00 1200.01 417 1233 2.000 10000.000 0.000 -1.296
77 231.00 1200.01 396 1204 2.000 10000.000 0.000 -1.296
78 234.00 1200.01 398 1243 2.000 10000.000 0.000 -1.296
79 237.00 1200.01 414 1287 2.000 10000.000 0.000 -1.296
80 240.00 1200.01 417 1284 2.000 10000.000 0.000 -1.296
81 243.00 1200.01 412 1277 2.000 10000.000 0.000 -1.296
82 246.00 1200.01 402 1403 2.000 10000.000 0.000 -1.296
83 249.00 1200.01 407 1330 2.000 10000.000 0.000 -1.296
84 252.00 1200.01 408 1340 2.000 10000.000 0.000 -1.296
85 255.00 1200.01 405 1297 2.000 10000.000 0.000 -1.296
86 258.00 1200.01 421 1397 2.000 10000.000 0.000 -1.296
87 261.00 1200.01 450 1308 2.000 10000.000 0.000 -1.296
88 264.00 1200.01 380 1342 2.000 10000.000 0.000 -1.296
89 267.00 1200.01 401 1300 2.000 10000.000 0.000 -1.296
90 270.00 1200.01 315 1210 2.000 10000.000 0.000 -1.296
91 273.00 1200.01 373 1119 2.000 10000.000 0.000 -1.296
92 276.00 1200.01 301 1161 2.000 10000.000 0.000 -1.296
93 279.00 1200.01 287 1014 2.000 10000.000 0.000 -1.296
94 282.00 1200.01 313 942 2.000 10000.000 0.000 -1.296
95 285.00 1200.01 263 860 2.000 10000.000 0.000 -1.296
96 288.00 1200.01 256 819 2.000 10000.000 0.000 -1.296
97 291.00 1200.01 267 780 2.000 10000.000 0.000 -1.296
98 294.00 1200.01 297 745 2.000 10000.000 0.000 -1.296
99 297.00 1200.01 257 721 2.000 10000.000 0.000 -1.296
100 300.00 1200.01 256 686 2.000 10000.000 0.000 -1.296
101 303.00 1200.01 214 616 2.000 10000.000 0.000 -1.296
