# BinNR microsec tot-time (s)  O-Beam AUX Ampl(V) f(Hz) phase(deg) chi(pos)
0 0.00 1200.00 211 645 2.000 10000.000 0.000 1.307
1 3.00 1200.00 438 1198 2.000 10000.000 0.000 1.307
2 6.00 1200.00 460 1225 2.000 10000.000 0.000 1.307
3 9.00 1200.00 439 1208 2.000 10000.000 0.000 1.307
4 12.00 1200.00 413 1235 2.000 10000.000 0.000 1.307
5 15.00 1200.00 450 1189 2.000 10000.000 0.000 1.307
6 18.00 1200.00 455 1265 2.000 10000.000 0.000 1.307
7 21.00 1200.00 364 1192 2.000 10000.000 0.000 1.307
8 24.00 1200.00 400 1080 2.000 10000.000 0.000 1.307
9 27.00 1200.00 376 990 2.000 10000.000 0.000 1.307
10 30.00 1200.00 348 952 2.000 10000.000 0.000 1.307
11 33.00 1200.00 356 870 2.000 10000.000 0.000 1.307
12 36.00 1200.00 344 859 2.000 10000.000 0.000 1.307
13 39.00 1200.00 348 803 2.000 10000.000 0.000 1.307
14 42.00 1200.00 353 825 2.000 10000.000 0.000 1.307
15 45.00 1200.00 371 820 2.000 10000.000 0.000 1.307
16 48.00 1200.00 381 850 2.000 10000.000 0.000 1.307
17 51.00 1200.00 386 804 2.000 10000.000 0.000 1.307
18 54.00 1200.00 406 858 2.000 10000.000 0.000 1.307
19 57.00 1200.00 387 853 2.000 10000.000 0.000 1.307
20 60.00 1200.00 429 874 2.000 10000.000 0.000 1.307
21 63.00 1200.00 453 966 2.000 10000.000 0.000 1.307
22 66.00 1200.00 452 995 2.000 10000.000 0.000 1.307
23 69.00 1200.00 400 1080 2.000 10000.000 0.000 1.307
24 72.00 1200.00 466 1094 2.000 10000.000 0.000 1.307
25 75.00 1200.00 452 1171 2.000 10000.000 0.000 1.307
26 78.00 1200.00 446 1177 2.000 10000.000 0.000 1.307
27 81.00 1200.00 451 1181 2.000 10000.000 0.000 1.307
28 84.00 1200.00 425 1213 2.000 10000.000 0.000 1.307
29 87.00 1200.00 456 1219 2.000 10000.000 0.000 1.307
30 90.00 1200.00 467 1210 2.000 10000.000 0.000 1.307
31 93.00 1200.00 385 1218 2.000 10000.000 0.000 1.307
32 96.00 1200.00 441 1273 2.000 10000.000 0.000 1.307
33 99.00 1200.00 426 1322 2.000 10000.000 0.000 1.307
34 102.00 1200.00 391 1217 2.000 10000.000 0.000 1.307
35 105.00 1200.00 404 1211 2.000 10000.000 0.000 1.307
36 108.00 1200.00 441 1223 2.000 10000.000 0.000 1.307
37 111.00 1200.00 419 1293 2.000 10000.000 0.000 1.307
38 114.00 1200.00 462 1286 2.000 10000.000 0.000 1.307
39 117.00 1200.00 441 1236 2.000 10000.000 0.000 1.307
40 120.00 1200.00 375 1298 2.000 10000.000 0.000 1.307
41 123.00 1200.00 404 1168 2.000 10000.000 0.000 1.307
42 126.00 1200.00 420 1118 2.000 10000.000 0.000 1.307
43 129.00 1200.00 390 1061 2.000 10000.000 0.000 1.307
44 132.00 1200.00 371 1027 2.000 10000.000 0.000 1.307
45 135.00 1200.00 369 985 2.000 10000.000 0.000 1.307
46 138.00 1200.00 384 860 2.000 10000.000 0.000 1.307
47 141.00 1200.00 359 818 2.000 10000.000 0.000 1.307
48 144.00 1200.00 401 800 2.000 10000.000 0.000 1.307
49 147.00 1200.00 368 756 2.000 10000.000 0.000 1.307
50 150.00 1200.00 366 749 2.000 10000.000 0.000 1.307
51 153.00 1200.00 374 752 2.000 10000.000 0.000 1.307
52 156.00 1200.00 355 844 2.000 10000.000 0.000 1.307
53 159.00 1200.00 401 824 2.000 10000.000 0.000 1.307
54 162.00 1200.00 418 861 2.000 10000.000 0.000 1.307
55 165.00 1200.00 375 953 2.000 10000.000 0.000 1.307
56 168.00 1200.00 451 1054 2.000 10000.000 0.000 1.307
57 171.00 1200.00 458 1081 2.000 10000.000 0.000 1.307
58 174.00 1200.00 465 1109 2.000 10000.000 0.000 1.307
59 177.00 1200.00 459 1185 2.000 10000.000 0.000 1.307
60 180.00 1200.00 450 1238 2.000 10000.000 0.000 1.307
61 183.00 1200.00 421 1181 2.000 10000.000 0.000 1.307
62 186.00 1200.00 448 1275 2.000 10000.000 0.000 1.307
63 189.00 1200.00 423 1227 2.000 10000.000 0.000 1.307
64 192.00 1200.00 469 1240 2.000 10000.000 0.000 1.307
65 195.00 1200.00 406 1266 2.000 10000.000 0.000 1.307
66 198.00 1200.00 455 1234 2.000 10000.000 0.000 1.307
67 201.00 1200.00 483 1210 2.000 10000.000 0.000 1.307
68 204.00 1200.00 472 1220 2.000 10000.000 0.000 1.307
69 207.00 1200.00 468 1188 2.000 10000.000 0.000 1.307
70 210.00 1200.00 469 1271 2.000 10000.000 0.000 1.307
71 213.00 1200.00 418 1264 2.000 10000.000 0.000 1.307
72 216.00 1200.00 471 1279 2.000 10000.000 0.000 1.307
73 219.00 1200.00 454 1218 2.000 10000.000 0.000 1.307
74 222.00 1200.00 418 1183 2.000 10000.000 0.000 1.307
75 225.00 1200.00 407 1105 2.000 10000.000 0.000 1.307
76 228.00 1200.00 399 1093 2.000 10000.000 0.000 1.307
77 231.00 1200.00 410 1021 2.000 10000.000 0.000 1.307
78 234.00 1200.00 358 1001 2.000 10000.000 0.000 1.307
79 237.00 1200.00 342 863 2.000 10000.000 0.000 1.307
80 240.00 1200.00 350 824 2.000 10000.000 0.000 1.307
81 243.00 1200.00 370 779 2.000 10000.000 0.000 1.307
82 246.00 1200.00 403 751 2.000 10000.000 0.000 1.307
83 249.00 1200.00 356 714 2.000 10000.000 0.000 1.307
84 252.00 1200.00 371 782 2.000 10000.000 0.000 1.307
85 255.00 1200.00 382 719 2.000 10000.000 0.000 1.307
86 258.00 1200.00 377 784 2.000 10000.000 0.000 1.307
87 261.00 1200.00 385 905 2.000 10000.000 0.000 1.307
88 264.00 1200.00 418 940 2.000 10000.000 0.000 1.307
89 267.00 1200.00 399 1047 2.000 10000.000 0.000 1.307
90 270.00 1200.00 434 1099 2.000 10000.000 0.000 1.307
91 273.00 1200.00 397 1097 2.000 10000.000 0.000 1.307
92 276.00 1200.00 432 1153 2.000 10000.000 0.000 1.307
93 279.00 1200.00 432 1158 2.000 10000.000 0.000 1.307
94 282.00 1200.00 467 1287 2.000 10000.000 0.000 1.307
95 285.00 1200.00 437 1254 2.000 10000.000 0.000 1.307
96 288.00 1200.00 437 1267 2.000 10000.000 0.000 1.307
97 291.00 1200.00 435 1271 2.000 10000.000 0.000 1.307
98 294.00 1200.00 456 1262 2.000 10000.000 0.000 1.307
99 297.00 1200.00 422 1210 2.000 10000.000 0.000 1.307
100 300.00 1200.00 457 1224 2.000 10000.000 0.000 1.307
101 303.00 1200.00 326 1024 2.000 10000.000 0.000 1.307
