# BinNR microsec tot-time (s)  O-Beam AUX Ampl(V) f(Hz) phase(deg) chi(pos)
0 0.00 1200.02 94 127 2.000 10000.000 0.000 0.297
1 3.00 1200.02 143 239 2.000 10000.000 0.000 0.297
2 6.00 1200.02 160 251 2.000 10000.000 0.000 0.297
3 9.00 1200.02 149 250 2.000 10000.000 0.000 0.297
4 12.00 1200.02 167 258 2.000 10000.000 0.000 0.297
5 15.00 1200.02 175 255 2.000 10000.000 0.000 0.297
6 18.00 1200.02 162 261 2.000 10000.000 0.000 0.297
7 21.00 1200.02 185 377 2.000 10000.000 0.000 0.297
8 24.00 1200.02 199 423 2.000 10000.000 0.000 0.297
9 27.00 1200.02 232 498 2.000 10000.000 0.000 0.297
10 30.00 1200.02 229 559 2.000 10000.000 0.000 0.297
11 33.00 1200.02 241 575 2.000 10000.000 0.000 0.297
12 36.00 1200.02 230 636 2.000 10000.000 0.000 0.297
13 39.00 1200.02 232 659 2.000 10000.000 0.000 0.297
14 42.00 1200.02 223 673 2.000 10000.000 0.000 0.297
15 45.00 1200.02 225 664 2.000 10000.000 0.000 0.297
16 48.00 1200.02 214 684 2.000 10000.000 0.000 0.297
17 51.00 1200.02 208 708 2.000 10000.000 0.000 0.297
18 54.00 1200.02 239 698 2.000 10000.000 0.000 0.297
19 57.00 1200.02 226 683 2.000 10000.000 0.000 0.297
20 60.00 1200.02 208 635 2.000 10000.000 0.000 0.297
21 63.00 1200.02 168 574 2.000 10000.000 0.000 0.297
22 66.00 1200.02 182 485 2.000 10000.000 0.000 0.297
23 69.00 1200.02 164 445 2.000 10000.000 0.000 0.297
24 72.00 1200.02 145 411 2.000 10000.000 0.000 0.297
25 75.00 1200.02 136 347 2.000 10000.000 0.000 0.297
26 78.00 1200.02 159 280 2.000 10000.000 0.000 0.297
27 81.00 1200.02 154 241 2.000 10000.000 0.000 0.297
28 84.00 1200.02 160 271 2.000 10000.000 0.000 0.297
29 87.00 1200.02 163 266 2.000 10000.000 0.000 0.297
30 90.00 1200.02 172 246 2.000 10000.000 0.000 0.297
31 93.00 1200.02 160 243 2.000 10000.000 0.000 0.297
32 96.00 1200.02 162 240 2.000 10000.000 0.000 0.297
33 99.00 1200.02 150 240 2.000 10000.000 0.000 0.297
34 102.00 1200.02 172 235 2.000 10000.000 0.000 0.297
35 105.00 1200.02 160 227 2.000 10000.000 0.000 0.297
36 108.00 1200.02 178 260 2.000 10000.000 0.000 0.297
37 111.00 1200.02 181 212 2.000 10000.000 0.000 0.297
38 114.00 1200.02 163 228 2.000 10000.000 0.000 0.297
39 117.00 1200.02 159 266 2.000 10000.000 0.000 0.297
40 120.00 1200.02 178 294 2.000 10000.000 0.000 0.297
41 123.00 1200.02 197 313 2.000 10000.000 0.000 0.297
42 126.00 1200.02 184 396 2.000 10000.000 0.000 0.297
43 129.00 1200.02 217 396 2.000 10000.000 0.000 0.297
44 132.00 1200.02 204 518 2.000 10000.000 0.000 0.297
45 135.00 1200.02 223 589 2.000 10000.000 0.000 0.297
46 138.00 1200.02 233 613 2.000 10000.000 0.000 0.297
47 141.00 1200.02 221 664 2.000 10000.000 0.000 0.297
48 144.00 1200.02 223 732 2.000 10000.000 0.000 0.297
49 147.00 1200.02 240 710 2.000 10000.000 0.000 0.297
50 150.00 1200.02 229 771 2.000 10000.000 0.000 0.297
51 153.00 1200.02 228 743 2.000 10000.000 0.000 0.297
52 156.00 1200.02 215 717 2.000 10000.000 0.000 0.297
53 159.00 1200.02 220 641 2.000 10000.000 0.000 0.297
54 162.00 1200.02 181 628 2.000 10000.000 0.000 0.297
55 165.00 1200.02 166 555 2.000 10000.000 0.000 0.297
56 168.00 1200.02 164 489 2.000 10000.000 0.000 0.297
57 171.00 1200.02 165 441 2.000 10000.000 0.000 0.297
58 174.00 1200.02 146 350 2.000 10000.000 0.000 0.297
59 177.00 1200.02 139 277 2.000 10000.000 0.000 0.297
60 180.00 1200.02 156 253 2.000 10000.000 0.000 0.297
61 183.00 1200.02 155 246 2.000 10000.000 0.000 0.297
62 186.00 1200.02 149 208 2.000 10000.000 0.000 0.297
63 189.00 1200.02 160 259 2.000 10000.000 0.000 0.297
64 192.00 1200.02 147 244 2.000 10000.000 0.000 0.297
65 195.00 1200.02 170 239 2.000 10000.000 0.000 0.297
66 198.00 1200.02 163 239 2.000 10000.000 0.000 0.297
67 201.00 1200.02 162 244 2.000 10000.000 0.000 0.297
68 204.00 1200.02 145 237 2.000 10000.000 0.000 0.297
69 207.00 1200.02 151 243 2.000 10000.000 0.000 0.297
70 210.00 1200.02 145 234 2.000 10000.000 0.000 0.297
71 213.00 1200.02 131 243 2.000 10000.000 0.000 0.297
72 216.00 1200.02 160 252 2.000 10000.000 0.000 0.297
73 219.00 1200.02 166 303 2.000 10000.000 0.000 0.297
74 222.00 1200.02 173 281 2.000 10000.000 0.000 0.297
75 225.00 1200.02 184 353 2.000 10000.000 0.000 0.297
76 228.00 1200.02 200 407 2.000 10000.000 0.000 0.297
77 231.00 1200.02 210 471 2.000 10000.000 0.000 0.297
78 234.00 1200.02 216 562 2.000 10000.000 0.000 0.297
79 237.00 1200.02 236 660 2.000 10000.000 0.000 0.297
80 240.00 1200.02 243 697 2.000 10000.000 0.000 0.297
81 243.00 1200.02 219 704 2.000 10000.000 0.000 0.297
82 246.00 1200.02 228 735 2.000 10000.000 0.000 0.297
83 249.00 1200.02 256 743 2.000 10000.000 0.000 0.297
84 252.00 1200.02 247 785 2.000 10000.000 0.000 0.297
85 255.00 1200.02 218 724 2.000 10000.000 0.000 0.297
86 258.00 1200.02 225 653 2.000 10000.000 0.000 0.297
87 261.00 1200.02 215 597 2.000 10000.000 0.000 0.297
88 264.00 1200.02 207 597 2.000 10000.000 0.000 0.297
89 267.00 1200.02 167 504 2.000 10000.000 0.000 0.297
90 270.00 1200.02 162 448 2.000 10000.000 0.000 0.297
91 273.00 1200.02 151 357 2.000 10000.000 0.000 0.297
92 276.00 1200.02 147 339 2.000 10000.000 0.000 0.297
93 279.00 1200.02 137 263 2.000 10000.000 0.000 0.297
94 282.00 1200.02 130 270 2.000 10000.000 0.000 0.297
95 285.00 1200.02 154 230 2.000 10000.000 0.000 0.297
96 288.00 1200.02 152 213 2.000 10000.000 0.000 0.297
97 291.00 1200.02 156 248 2.000 10000.000 0.000 0.297
98 294.00 1200.02 159 237 2.000 10000.000 0.000 0.297
99 297.00 1200.02 144 256 2.000 10000.000 0.000 0.297
100 300.00 1200.02 141 275 2.000 10000.000 0.000 0.297
101 303.00 1200.02 130 211 2.000 10000.000 0.000 0.297
