# BinNR microsec tot-time (s)  O-Beam AUX Ampl(V) f(Hz) phase(deg) chi(pos)
0 0.00 1200.01 174 512 2.000 10000.000 0.000 -1.110
1 3.00 1200.01 348 1064 2.000 10000.000 0.000 -1.110
2 6.00 1200.01 399 1175 2.000 10000.000 0.000 -1.110
3 9.00 1200.01 395 1215 2.000 10000.000 0.000 -1.110
4 12.00 1200.01 404 1171 2.000 10000.000 0.000 -1.110
5 15.00 1200.01 422 1307 2.000 10000.000 0.000 -1.110
6 18.00 1200.01 431 1378 2.000 10000.000 0.000 -1.110
7 21.00 1200.01 388 1316 2.000 10000.000 0.000 -1.110
8 24.00 1200.01 423 1363 2.000 10000.000 0.000 -1.110
9 27.00 1200.01 457 1371 2.000 10000.000 0.000 -1.110
10 30.00 1200.01 457 1374 2.000 10000.000 0.000 -1.110
11 33.00 1200.01 423 1336 2.000 10000.000 0.000 -1.110
12 36.00 1200.01 428 1314 2.000 10000.000 0.000 -1.110
13 39.00 1200.01 417 1295 2.000 10000.000 0.000 -1.110
14 42.00 1200.01 410 1293 2.000 10000.000 0.000 -1.110
15 45.00 1200.01 401 1224 2.000 10000.000 0.000 -1.110
16 48.00 1200.01 445 1290 2.000 10000.000 0.000 -1.110
17 51.00 1200.01 461 1274 2.000 10000.000 0.000 -1.110
18 54.00 1200.01 474 1313 2.000 10000.000 0.000 -1.110
19 57.00 1200.01 473 1340 2.000 10000.000 0.000 -1.110
20 60.00 1200.01 420 1366 2.000 10000.000 0.000 -1.110
21 63.00 1200.01 494 1322 2.000 10000.000 0.000 -1.110
22 66.00 1200.01 454 1373 2.000 10000.000 0.000 -1.110
23 69.00 1200.01 437 1369 2.000 10000.000 0.000 -1.110
24 72.00 1200.01 425 1408 2.000 10000.000 0.000 -1.110
25 75.00 1200.01 423 1313 2.000 10000.000 0.000 -1.110
26 78.00 1200.01 415 1217 2.000 10000.000 0.000 -1.110
27 81.00 1200.01 369 1303 2.000 10000.000 0.000 -1.110
28 84.00 1200.01 376 1263 2.000 10000.000 0.000 -1.110
29 87.00 1200.01 352 1188 2.000 10000.000 0.000 -1.110
30 90.00 1200.01 343 1101 2.000 10000.000 0.000 -1.110
31 93.00 1200.01 346 1053 2.000 10000.000 0.000 -1.110
32 96.00 1200.01 370 1094 2.000 10000.000 0.000 -1.110
33 99.00 1200.01 338 1039 2.000 10000.000 0.000 -1.110
34 102.00 1200.01 372 1008 2.000 10000.000 0.000 -1.110
35 105.00 1200.01 404 1001 2.000 10000.000 0.000 -1.110
36 108.00 1200.01 383 1149 2.000 10000.000 0.000 -1.110
37 111.00 1200.01 389 1164 2.000 10000.000 0.000 -1.110
38 114.00 1200.01 431 1292 2.000 10000.000 0.000 -1.110
39 117.00 1200.01 424 1189 2.000 10000.000 0.000 -1.110
40 120.00 1200.01 469 1332 2.000 10000.000 0.000 -1.110
41 123.00 1200.01 453 1367 2.000 10000.000 0.000 -1.110
42 126.00 1200.01 426 1322 2.000 10000.000 0.000 -1.110
43 129.00 1200.01 450 1343 2.000 10000.000 0.000 -1.110
44 132.00 1200.01 439 1326 2.000 10000.000 0.000 -1.110
45 135.00 1200.01 471 1225 2.000 10000.000 0.000 -1.110
46 138.00 1200.01 437 1325 2.000 10000.000 0.000 -1.110
47 141.00 1200.01 422 1249 2.000 10000.000 0.000 -1.110
48 144.00 1200.01 467 1203 2.000 10000.000 0.000 -1.110
49 147.00 1200.01 425 1245 2.000 10000.000 0.000 -1.110
50 150.00 1200.01 450 1189 2.000 10000.000 0.000 -1.110
51 153.00 1200.01 446 1258 2.000 10000.000 0.000 -1.110
52 156.00 1200.01 465 1245 2.000 10000.000 0.000 -1.110
53 159.00 1200.01 453 1221 2.000 10000.000 0.000 -1.110
54 162.00 1200.01 435 1295 2.000 10000.000 0.000 -1.110
55 165.00 1200.01 455 1331 2.000 10000.000 0.000 -1.110
56 168.00 1200.01 449 1380 2.000 10000.000 0.000 -1.110
57 171.00 1200.01 399 1353 2.000 10000.000 0.000 -1.110
58 174.00 1200.01 457 1409 2.000 10000.000 0.000 -1.110
59 177.00 1200.01 428 1280 2.000 10000.000 0.000 -1.110
60 180.00 1200.01 406 1281 2.000 10000.000 0.000 -1.110
61 183.00 1200.01 374 1219 2.000 10000.000 0.000 -1.110
62 186.00 1200.01 405 1196 2.000 10000.000 0.000 -1.110
63 189.00 1200.01 359 1091 2.000 10000.000 0.000 -1.110
64 192.00 1200.01 368 1071 2.000 10000.000 0.000 -1.110
65 195.00 1200.01 341 1073 2.000 10000.000 0.000 -1.110
66 198.00 1200.01 363 1026 2.000 10000.000 0.000 -1.110
67 201.00 1200.01 354 1014 2.000 10000.000 0.000 -1.110
68 204.00 1200.01 389 995 2.000 10000.000 0.000 -1.110
69 207.00 1200.01 385 1058 2.000 10000.000 0.000 -1.110
70 210.00 1200.01 368 1127 2.000 10000.000 0.000 -1.110
71 213.00 1200.01 420 1185 2.000 10000.000 0.000 -1.110
72 216.00 1200.01 445 1295 2.000 10000.000 0.000 -1.110
73 219.00 1200.01 432 1266 2.000 10000.000 0.000 -1.110
74 222.00 1200.01 454 1314 2.000 10000.000 0.000 -1.110
75 225.00 1200.01 416 1354 2.000 10000.000 0.000 -1.110
76 228.00 1200.01 484 1420 2.000 10000.000 0.000 -1.110
77 231.00 1200.01 435 1405 2.000 10000.000 0.000 -1.110
78 234.00 1200.01 458 1407 2.000 10000.000 0.000 -1.110
79 237.00 1200.01 425 1359 2.000 10000.000 0.000 -1.110
80 240.00 1200.01 442 1299 2.000 10000.000 0.000 -1.110
81 243.00 1200.01 409 1148 2.000 10000.000 0.000 -1.110
82 246.00 1200.01 448 1262 2.000 10000.000 0.000 -1.110
83 249.00 1200.01 455 1240 2.000 10000.000 0.000 -1.110
84 252.00 1200.01 475 1307 2.000 10000.000 0.000 -1.110
85 255.00 1200.01 492 1365 2.000 10000.000 0.000 -1.110
86 258.00 1200.01 472 1225 2.000 10000.000 0.000 -1.110
87 261.00 1200.01 451 1252 2.000 10000.000 0.000 -1.110
88 264.00 1200.01 491 1379 2.000 10000.000 0.000 -1.110
89 267.00 1200.01 442 1409 2.000 10000.000 0.000 -1.110
90 270.00 1200.01 467 1441 2.000 10000.000 0.000 -1.110
91 273.00 1200.01 449 1366 2.000 10000.000 0.000 -1.110
92 276.00 1200.01 445 1405 2.000 10000.000 0.000 -1.110
93 279.00 1200.01 408 1175 2.000 10000.000 0.000 -1.110
94 282.00 1200.01 414 1249 2.000 10000.000 0.000 -1.110
95 285.00 1200.01 357 1109 2.000 10000.000 0.000 -1.110
96 288.00 1200.01 384 1121 2.000 10000.000 0.000 -1.110
97 291.00 1200.01 399 1092 2.000 10000.000 0.000 -1.110
98 294.00 1200.01 332 1066 2.000 10000.000 0.000 -1.110
99 297.00 1200.01 338 1083 2.000 10000.000 0.000 -1.110
100 300.00 1200.01 362 1008 2.000 10000.000 0.000 -1.110
101 303.00 1200.01 304 911 2.000 10000.000 0.000 -1.110
