# BinNR microsec tot-time (s)  O-Beam AUX Ampl(V) f(Hz) phase(deg) chi(pos)
0 0.00 1200.01 225 570 2.000 10000.000 0.000 1.505
1 3.00 1200.01 396 1100 2.000 10000.000 0.000 1.505
2 6.00 1200.01 418 1083 2.000 10000.000 0.000 1.505
3 9.00 1200.01 353 994 2.000 10000.000 0.000 1.505
4 12.00 1200.01 385 1033 2.000 10000.000 0.000 1.505
5 15.00 1200.01 413 888 2.000 10000.000 0.000 1.505
6 18.00 1200.01 348 894 2.000 10000.000 0.000 1.505
7 21.00 1200.01 348 765 2.000 10000.000 0.000 1.505
8 24.00 1200.01 301 742 2.000 10000.000 0.000 1.505
9 27.00 1200.01 303 676 2.000 10000.000 0.000 1.505
10 30.00 1200.01 269 630 2.000 10000.000 0.000 1.505
11 33.00 1200.01 295 545 2.000 10000.000 0.000 1.505
12 36.00 1200.01 276 584 2.000 10000.000 0.000 1.505
13 39.00 1200.01 248 528 2.000 10000.000 0.000 1.505
14 42.00 1200.01 264 505 2.000 10000.000 0.000 1.505
15 45.00 1200.01 283 505 2.000 10000.000 0.000 1.505
16 48.00 1200.01 250 498 2.000 10000.000 0.000 1.505
17 51.00 1200.01 264 503 2.000 10000.000 0.000 1.505
18 54.00 1200.01 331 509 2.000 10000.000 0.000 1.505
19 57.00 1200.01 281 562 2.000 10000.000 0.000 1.505
20 60.00 1200.01 347 582 2.000 10000.000 0.000 1.505
21 63.00 1200.01 345 589 2.000 10000.000 0.000 1.505
22 66.00 1200.01 348 683 2.000 10000.000 0.000 1.505
23 69.00 1200.01 343 715 2.000 10000.000 0.000 1.505
24 72.00 1200.01 372 797 2.000 10000.000 0.000 1.505
25 75.00 1200.01 369 824 2.000 10000.000 0.000 1.505
26 78.00 1200.01 434 955 2.000 10000.000 0.000 1.505
27 81.00 1200.01 402 930 2.000 10000.000 0.000 1.505
28 84.00 1200.01 452 1013 2.000 10000.000 0.000 1.505
29 87.00 1200.01 440 1062 2.000 10000.000 0.000 1.505
30 90.00 1200.01 421 1136 2.000 10000.000 0.000 1.505
31 93.00 1200.01 406 1131 2.000 10000.000 0.000 1.505
32 96.00 1200.01 436 1189 2.000 10000.000 0.000 1.505
33 99.00 1200.01 430 1109 2.000 10000.000 0.000 1.505
34 102.00 1200.01 431 1128 2.000 10000.000 0.000 1.505
35 105.00 1200.01 406 1130 2.000 10000.000 0.000 1.505
36 108.00 1200.01 376 1048 2.000 10000.000 0.000 1.505
37 111.00 1200.01 381 1118 2.000 10000.000 0.000 1.505
38 114.00 1200.01 383 1084 2.000 10000.000 0.000 1.505
39 117.00 1200.01 356 1004 2.000 10000.000 0.000 1.505
40 120.00 1200.01 323 1012 2.000 10000.000 0.000 1.505
41 123.00 1200.01 305 883 2.000 10000.000 0.000 1.505
42 126.00 1200.01 304 793 2.000 10000.000 0.000 1.505
43 129.00 1200.01 303 766 2.000 10000.000 0.000 1.505
44 132.00 1200.01 289 681 2.000 10000.000 0.000 1.505
45 135.00 1200.01 272 616 2.000 10000.000 0.000 1.505
46 138.00 1200.01 272 564 2.000 10000.000 0.000 1.505
47 141.00 1200.01 262 507 2.000 10000.000 0.000 1.505
48 144.00 1200.01 269 489 2.000 10000.000 0.000 1.505
49 147.00 1200.01 260 453 2.000 10000.000 0.000 1.505
50 150.00 1200.01 270 461 2.000 10000.000 0.000 1.505
51 153.00 1200.01 288 485 2.000 10000.000 0.000 1.505
52 156.00 1200.01 307 475 2.000 10000.000 0.000 1.505
53 159.00 1200.01 312 476 2.000 10000.000 0.000 1.505
54 162.00 1200.01 330 545 2.000 10000.000 0.000 1.505
55 165.00 1200.01 311 556 2.000 10000.000 0.000 1.505
56 168.00 1200.01 351 662 2.000 10000.000 0.000 1.505
57 171.00 1200.01 360 767 2.000 10000.000 0.000 1.505
58 174.00 1200.01 407 814 2.000 10000.000 0.000 1.505
59 177.00 1200.01 408 834 2.000 10000.000 0.000 1.505
60 180.00 1200.01 385 977 2.000 10000.000 0.000 1.505
61 183.00 1200.01 415 1019 2.000 10000.000 0.000 1.505
62 186.00 1200.01 406 1102 2.000 10000.000 0.000 1.505
63 189.00 1200.01 415 1142 2.000 10000.000 0.000 1.505
64 192.00 1200.01 412 1200 2.000 10000.000 0.000 1.505
65 195.00 1200.01 427 1081 2.000 10000.000 0.000 1.505
66 198.00 1200.01 419 1167 2.000 10000.000 0.000 1.505
67 201.00 1200.01 439 1092 2.000 10000.000 0.000 1.505
68 204.00 1200.01 419 1121 2.000 10000.000 0.000 1.505
69 207.00 1200.01 452 1157 2.000 10000.000 0.000 1.505
70 210.00 1200.01 390 1132 2.000 10000.000 0.000 1.505
71 213.00 1200.01 376 1027 2.000 10000.000 0.000 1.505
72 216.00 1200.01 418 1023 2.000 10000.000 0.000 1.505
73 219.00 1200.01 361 957 2.000 10000.000 0.000 1.505
74 222.00 1200.01 356 909 2.000 10000.000 0.000 1.505
75 225.00 1200.01 332 828 2.000 10000.000 0.000 1.505
76 228.00 1200.01 310 804 2.000 10000.000 0.000 1.505
77 231.00 1200.01 311 682 2.000 10000.000 0.000 1.505
78 234.00 1200.01 269 631 2.000 10000.000 0.000 1.505
79 237.00 1200.01 298 524 2.000 10000.000 0.000 1.505
80 240.00 1200.01 270 504 2.000 10000.000 0.000 1.505
81 243.00 1200.01 284 490 2.000 10000.000 0.000 1.505
82 246.00 1200.01 262 435 2.000 10000.000 0.000 1.505
83 249.00 1200.01 273 472 2.000 10000.000 0.000 1.505
84 252.00 1200.01 268 480 2.000 10000.000 0.000 1.505
85 255.00 1200.01 239 487 2.000 10000.000 0.000 1.505
86 258.00 1200.01 308 510 2.000 10000.000 0.000 1.505
87 261.00 1200.01 302 556 2.000 10000.000 0.000 1.505
88 264.00 1200.01 343 605 2.000 10000.000 0.000 1.505
89 267.00 1200.01 339 634 2.000 10000.000 0.000 1.505
90 270.00 1200.01 337 727 2.000 10000.000 0.000 1.505
91 273.00 1200.01 382 812 2.000 10000.000 0.000 1.505
92 276.00 1200.01 409 903 2.000 10000.000 0.000 1.505
93 279.00 1200.01 407 926 2.000 10000.000 0.000 1.505
94 282.00 1200.01 386 1072 2.000 10000.000 0.000 1.505
95 285.00 1200.01 447 1039 2.000 10000.000 0.000 1.505
96 288.00 1200.01 430 1039 2.000 10000.000 0.000 1.505
97 291.00 1200.01 442 1119 2.000 10000.000 0.000 1.505
98 294.00 1200.01 463 1139 2.000 10000.000 0.000 1.505
99 297.00 1200.01 380 1190 2.000 10000.000 0.000 1.505
100 300.00 1200.01 408 1190 2.000 10000.000 0.000 1.505
101 303.00 1200.01 363 921 2.000 10000.000 0.000 1.505
