# BinNR microsec tot-time (s)  O-Beam AUX Ampl(V) f(Hz) phase(deg) chi(pos)
0 0.00 1200.01 119 301 2.000 10000.000 0.000 0.703
1 3.00 1200.01 245 608 2.000 10000.000 0.000 0.703
2 6.00 1200.01 247 633 2.000 10000.000 0.000 0.703
3 9.00 1200.01 272 670 2.000 10000.000 0.000 0.703
4 12.00 1200.01 273 798 2.000 10000.000 0.000 0.703
5 15.00 1200.01 307 797 2.000 10000.000 0.000 0.703
6 18.00 1200.01 331 900 2.000 10000.000 0.000 0.703
7 21.00 1200.01 333 917 2.000 10000.000 0.000 0.703
8 24.00 1200.01 381 1062 2.000 10000.000 0.000 0.703
9 27.00 1200.01 356 1014 2.000 10000.000 0.000 0.703
10 30.00 1200.01 381 1045 2.000 10000.000 0.000 0.703
11 33.00 1200.01 394 1182 2.000 10000.000 0.000 0.703
12 36.00 1200.01 403 1208 2.000 10000.000 0.000 0.703
13 39.00 1200.01 373 1207 2.000 10000.000 0.000 0.703
14 42.00 1200.01 426 1175 2.000 10000.000 0.000 0.703
15 45.00 1200.01 390 1202 2.000 10000.000 0.000 0.703
16 48.00 1200.01 385 1207 2.000 10000.000 0.000 0.703
17 51.00 1200.01 373 1196 2.000 10000.000 0.000 0.703
18 54.00 1200.01 380 1202 2.000 10000.000 0.000 0.703
19 57.00 1200.01 339 1138 2.000 10000.000 0.000 0.703
20 60.00 1200.01 297 1209 2.000 10000.000 0.000 0.703
21 63.00 1200.01 301 1115 2.000 10000.000 0.000 0.703
22 66.00 1200.01 285 1088 2.000 10000.000 0.000 0.703
23 69.00 1200.01 297 1080 2.000 10000.000 0.000 0.703
24 72.00 1200.01 284 1050 2.000 10000.000 0.000 0.703
25 75.00 1200.01 260 915 2.000 10000.000 0.000 0.703
26 78.00 1200.01 267 859 2.000 10000.000 0.000 0.703
27 81.00 1200.01 228 803 2.000 10000.000 0.000 0.703
28 84.00 1200.01 231 692 2.000 10000.000 0.000 0.703
29 87.00 1200.01 227 702 2.000 10000.000 0.000 0.703
30 90.00 1200.01 213 615 2.000 10000.000 0.000 0.703
31 93.00 1200.01 242 549 2.000 10000.000 0.000 0.703
32 96.00 1200.01 230 591 2.000 10000.000 0.000 0.703
33 99.00 1200.01 229 490 2.000 10000.000 0.000 0.703
34 102.00 1200.01 264 549 2.000 10000.000 0.000 0.703
35 105.00 1200.01 268 574 2.000 10000.000 0.000 0.703
36 108.00 1200.01 276 600 2.000 10000.000 0.000 0.703
37 111.00 1200.01 268 597 2.000 10000.000 0.000 0.703
38 114.00 1200.01 315 714 2.000 10000.000 0.000 0.703
39 117.00 1200.01 303 770 2.000 10000.000 0.000 0.703
40 120.00 1200.01 321 852 2.000 10000.000 0.000 0.703
41 123.00 1200.01 354 801 2.000 10000.000 0.000 0.703
42 126.00 1200.01 345 1011 2.000 10000.000 0.000 0.703
43 129.00 1200.01 362 1100 2.000 10000.000 0.000 0.703
44 132.00 1200.01 367 1097 2.000 10000.000 0.000 0.703
45 135.00 1200.01 386 1151 2.000 10000.000 0.000 0.703
46 138.00 1200.01 408 1164 2.000 10000.000 0.000 0.703
47 141.00 1200.01 405 1127 2.000 10000.000 0.000 0.703
48 144.00 1200.01 411 1167 2.000 10000.000 0.000 0.703
49 147.00 1200.01 376 1217 2.000 10000.000 0.000 0.703
50 150.00 1200.01 419 1120 2.000 10000.000 0.000 0.703
51 153.00 1200.01 339 1210 2.000 10000.000 0.000 0.703
52 156.00 1200.01 373 1226 2.000 10000.000 0.000 0.703
53 159.00 1200.01 372 1149 2.000 10000.000 0.000 0.703
54 162.00 1200.01 365 1175 2.000 10000.000 0.000 0.703
55 165.00 1200.01 334 1053 2.000 10000.000 0.000 0.703
56 168.00 1200.01 339 1095 2.000 10000.000 0.000 0.703
57 171.00 1200.01 316 998 2.000 10000.000 0.000 0.703
58 174.00 1200.01 296 1015 2.000 10000.000 0.000 0.703
59 177.00 1200.01 292 844 2.000 10000.000 0.000 0.703
60 180.00 1200.01 262 817 2.000 10000.000 0.000 0.703
61 183.00 1200.01 261 687 2.000 10000.000 0.000 0.703
62 186.00 1200.01 225 621 2.000 10000.000 0.000 0.703
63 189.00 1200.01 222 581 2.000 10000.000 0.000 0.703
64 192.00 1200.01 221 557 2.000 10000.000 0.000 0.703
65 195.00 1200.01 221 549 2.000 10000.000 0.000 0.703
66 198.00 1200.01 216 568 2.000 10000.000 0.000 0.703
67 201.00 1200.01 209 534 2.000 10000.000 0.000 0.703
68 204.00 1200.01 228 528 2.000 10000.000 0.000 0.703
69 207.00 1200.01 241 591 2.000 10000.000 0.000 0.703
70 210.00 1200.01 274 610 2.000 10000.000 0.000 0.703
71 213.00 1200.01 276 671 2.000 10000.000 0.000 0.703
72 216.00 1200.01 294 727 2.000 10000.000 0.000 0.703
73 219.00 1200.01 314 811 2.000 10000.000 0.000 0.703
74 222.00 1200.01 365 867 2.000 10000.000 0.000 0.703
75 225.00 1200.01 302 980 2.000 10000.000 0.000 0.703
76 228.00 1200.01 357 1043 2.000 10000.000 0.000 0.703
77 231.00 1200.01 326 1121 2.000 10000.000 0.000 0.703
78 234.00 1200.01 383 1133 2.000 10000.000 0.000 0.703
79 237.00 1200.01 359 1150 2.000 10000.000 0.000 0.703
80 240.00 1200.01 405 1183 2.000 10000.000 0.000 0.703
81 243.00 1200.01 370 1140 2.000 10000.000 0.000 0.703
82 246.00 1200.01 413 1187 2.000 10000.000 0.000 0.703
83 249.00 1200.01 390 1176 2.000 10000.000 0.000 0.703
84 252.00 1200.01 405 1200 2.000 10000.000 0.000 0.703
85 255.00 1200.01 369 1146 2.000 10000.000 0.000 0.703
86 258.00 1200.01 371 1159 2.000 10000.000 0.000 0.703
87 261.00 1200.01 411 1109 2.000 10000.000 0.000 0.703
88 264.00 1200.01 344 1127 2.000 10000.000 0.000 0.703
89 267.00 1200.01 317 1034 2.000 10000.000 0.000 0.703
90 270.00 1200.01 334 1023 2.000 10000.000 0.000 0.703
91 273.00 1200.01 292 1005 2.000 10000.000 0.000 0.703
92 276.00 1200.01 298 914 2.000 10000.000 0.000 0.703
93 279.00 1200.01 254 797 2.000 10000.000 0.000 0.703
94 282.00 1200.01 251 734 2.000 10000.000 0.000 0.703
95 285.00 1200.01 232 704 2.000 10000.000 0.000 0.703
96 288.00 1200.01 215 611 2.000 10000.000 0.000 0.703
97 291.00 1200.01 241 588 2.000 10000.000 0.000 0.703
98 294.00 1200.01 208 561 2.000 10000.000 0.000 0.703
99 297.00 1200.01 228 534 2.000 10000.000 0.000 0.703
100 300.00 1200.01 232 541 2.000 10000.000 0.000 0.703
101 303.00 1200.01 193 416 2.000 10000.000 0.000 0.703
