# BinNR microsec tot-time (s)  O-Beam AUX Ampl(V) f(Hz) phase(deg) chi(pos)
0 0.00 1200.01 158 468 2.000 10000.000 0.000 0.890
1 3.00 1200.01 342 927 2.000 10000.000 0.000 0.890
2 6.00 1200.01 342 1051 2.000 10000.000 0.000 0.890
3 9.00 1200.01 356 1021 2.000 10000.000 0.000 0.890
4 12.00 1200.01 357 1103 2.000 10000.000 0.000 0.890
5 15.00 1200.01 381 1184 2.000 10000.000 0.000 0.890
6 18.00 1200.01 390 1232 2.000 10000.000 0.000 0.890
7 21.00 1200.01 394 1260 2.000 10000.000 0.000 0.890
8 24.00 1200.01 384 1269 2.000 10000.000 0.000 0.890
9 27.00 1200.01 401 1262 2.000 10000.000 0.000 0.890
10 30.00 1200.01 427 1330 2.000 10000.000 0.000 0.890
11 33.00 1200.01 418 1302 2.000 10000.000 0.000 0.890
12 36.00 1200.01 459 1286 2.000 10000.000 0.000 0.890
13 39.00 1200.01 449 1228 2.000 10000.000 0.000 0.890
14 42.00 1200.01 428 1233 2.000 10000.000 0.000 0.890
15 45.00 1200.01 451 1271 2.000 10000.000 0.000 0.890
16 48.00 1200.01 477 1193 2.000 10000.000 0.000 0.890
17 51.00 1200.01 430 1229 2.000 10000.000 0.000 0.890
18 54.00 1200.01 434 1309 2.000 10000.000 0.000 0.890
19 57.00 1200.01 432 1242 2.000 10000.000 0.000 0.890
20 60.00 1200.01 428 1312 2.000 10000.000 0.000 0.890
21 63.00 1200.01 432 1287 2.000 10000.000 0.000 0.890
22 66.00 1200.01 467 1325 2.000 10000.000 0.000 0.890
23 69.00 1200.01 395 1292 2.000 10000.000 0.000 0.890
24 72.00 1200.01 423 1295 2.000 10000.000 0.000 0.890
25 75.00 1200.01 390 1265 2.000 10000.000 0.000 0.890
26 78.00 1200.01 379 1144 2.000 10000.000 0.000 0.890
27 81.00 1200.01 346 1131 2.000 10000.000 0.000 0.890
28 84.00 1200.01 367 1106 2.000 10000.000 0.000 0.890
29 87.00 1200.01 298 1005 2.000 10000.000 0.000 0.890
30 90.00 1200.01 295 949 2.000 10000.000 0.000 0.890
31 93.00 1200.01 324 992 2.000 10000.000 0.000 0.890
32 96.00 1200.01 352 917 2.000 10000.000 0.000 0.890
33 99.00 1200.01 318 926 2.000 10000.000 0.000 0.890
34 102.00 1200.01 364 906 2.000 10000.000 0.000 0.890
35 105.00 1200.01 357 931 2.000 10000.000 0.000 0.890
36 108.00 1200.01 379 904 2.000 10000.000 0.000 0.890
37 111.00 1200.01 384 983 2.000 10000.000 0.000 0.890
38 114.00 1200.01 411 1099 2.000 10000.000 0.000 0.890
39 117.00 1200.01 420 1130 2.000 10000.000 0.000 0.890
40 120.00 1200.01 424 1169 2.000 10000.000 0.000 0.890
41 123.00 1200.01 399 1253 2.000 10000.000 0.000 0.890
42 126.00 1200.01 459 1297 2.000 10000.000 0.000 0.890
43 129.00 1200.01 407 1317 2.000 10000.000 0.000 0.890
44 132.00 1200.01 419 1284 2.000 10000.000 0.000 0.890
45 135.00 1200.01 474 1245 2.000 10000.000 0.000 0.890
46 138.00 1200.01 448 1325 2.000 10000.000 0.000 0.890
47 141.00 1200.01 416 1207 2.000 10000.000 0.000 0.890
48 144.00 1200.01 405 1232 2.000 10000.000 0.000 0.890
49 147.00 1200.01 422 1177 2.000 10000.000 0.000 0.890
50 150.00 1200.01 458 1263 2.000 10000.000 0.000 0.890
51 153.00 1200.01 423 1278 2.000 10000.000 0.000 0.890
52 156.00 1200.01 425 1267 2.000 10000.000 0.000 0.890
53 159.00 1200.01 451 1256 2.000 10000.000 0.000 0.890
54 162.00 1200.01 412 1349 2.000 10000.000 0.000 0.890
55 165.00 1200.01 424 1234 2.000 10000.000 0.000 0.890
56 168.00 1200.01 413 1294 2.000 10000.000 0.000 0.890
57 171.00 1200.01 421 1209 2.000 10000.000 0.000 0.890
58 174.00 1200.01 373 1246 2.000 10000.000 0.000 0.890
59 177.00 1200.01 416 1217 2.000 10000.000 0.000 0.890
60 180.00 1200.01 356 1146 2.000 10000.000 0.000 0.890
61 183.00 1200.01 315 1099 2.000 10000.000 0.000 0.890
62 186.00 1200.01 328 1034 2.000 10000.000 0.000 0.890
63 189.00 1200.01 328 968 2.000 10000.000 0.000 0.890
64 192.00 1200.01 315 1017 2.000 10000.000 0.000 0.890
65 195.00 1200.01 303 913 2.000 10000.000 0.000 0.890
66 198.00 1200.01 313 957 2.000 10000.000 0.000 0.890
67 201.00 1200.01 305 911 2.000 10000.000 0.000 0.890
68 204.00 1200.01 326 949 2.000 10000.000 0.000 0.890
69 207.00 1200.01 370 898 2.000 10000.000 0.000 0.890
70 210.00 1200.01 358 997 2.000 10000.000 0.000 0.890
71 213.00 1200.01 334 1000 2.000 10000.000 0.000 0.890
72 216.00 1200.01 353 1151 2.000 10000.000 0.000 0.890
73 219.00 1200.01 365 1223 2.000 10000.000 0.000 0.890
74 222.00 1200.01 420 1216 2.000 10000.000 0.000 0.890
75 225.00 1200.01 457 1170 2.000 10000.000 0.000 0.890
76 228.00 1200.01 419 1340 2.000 10000.000 0.000 0.890
77 231.00 1200.01 411 1315 2.000 10000.000 0.000 0.890
78 234.00 1200.01 418 1336 2.000 10000.000 0.000 0.890
79 237.00 1200.01 452 1260 2.000 10000.000 0.000 0.890
80 240.00 1200.01 437 1271 2.000 10000.000 0.000 0.890
81 243.00 1200.01 423 1212 2.000 10000.000 0.000 0.890
82 246.00 1200.01 444 1266 2.000 10000.000 0.000 0.890
83 249.00 1200.01 482 1212 2.000 10000.000 0.000 0.890
84 252.00 1200.01 456 1158 2.000 10000.000 0.000 0.890
85 255.00 1200.01 392 1238 2.000 10000.000 0.000 0.890
86 258.00 1200.01 472 1255 2.000 10000.000 0.000 0.890
87 261.00 1200.01 447 1256 2.000 10000.000 0.000 0.890
88 264.00 1200.01 445 1313 2.000 10000.000 0.000 0.890
89 267.00 1200.01 462 1256 2.000 10000.000 0.000 0.890
90 270.00 1200.01 412 1351 2.000 10000.000 0.000 0.890
91 273.00 1200.01 421 1209 2.000 10000.000 0.000 0.890
92 276.00 1200.01 393 1310 2.000 10000.000 0.000 0.890
93 279.00 1200.01 354 1169 2.000 10000.000 0.000 0.890
94 282.00 1200.01 369 1100 2.000 10000.000 0.000 0.890
95 285.00 1200.01 375 1022 2.000 10000.000 0.000 0.890
96 288.00 1200.01 344 1021 2.000 10000.000 0.000 0.890
97 291.00 1200.01 318 924 2.000 10000.000 0.000 0.890
98 294.00 1200.01 343 951 2.000 10000.000 0.000 0.890
99 297.00 1200.01 315 834 2.000 10000.000 0.000 0.890
100 300.00 1200.01 326 899 2.000 10000.000 0.000 0.890
101 303.00 1200.01 288 804 2.000 10000.000 0.000 0.890
