# BinNR microsec tot-time (s)  O-Beam H-beam AUX Ampl(V) f(Hz) phase(deg) chi(pos)
0 0.00 1200.00 69 1409 186 0.000 2.102 3000.000 1.208
1 25.00 1200.00 143 1110 419 0.000 2.102 3000.000 1.208
2 50.00 1200.00 169 764 607 0.000 2.102 3000.000 1.208
3 75.00 1200.00 152 640 561 0.000 2.102 3000.000 1.208
4 100.00 1200.00 84 561 620 0.000 2.102 3000.000 1.208
5 125.00 1200.00 54 612 522 0.000 2.102 3000.000 1.208
6 150.00 1200.00 181 704 372 0.000 2.102 3000.000 1.208
7 175.00 1200.00 226 938 138 0.000 2.102 3000.000 1.208
8 200.00 1200.00 286 1258 103 0.000 2.102 3000.000 1.208
9 225.00 1200.00 293 1252 254 0.000 2.102 3000.000 1.208
10 250.00 1200.00 304 1073 313 0.000 2.102 3000.000 1.208
11 275.00 1200.00 245 966 244 0.000 2.102 3000.000 1.208
12 300.00 1200.00 96 1132 116 0.000 2.102 3000.000 1.208
13 325.00 1200.00 68 1301 117 0.000 2.102 3000.000 1.208
14 350.00 1200.00 100 1207 305 0.000 2.102 3000.000 1.208
15 375.00 1200.00 160 881 524 0.000 2.102 3000.000 1.208
16 400.00 1200.00 182 614 558 0.000 2.102 3000.000 1.208
17 425.00 1200.00 115 546 561 0.000 2.102 3000.000 1.208
18 450.00 1200.00 58 606 563 0.000 2.102 3000.000 1.208
19 475.00 1200.00 127 643 461 0.000 2.102 3000.000 1.208
20 500.00 1200.00 216 936 215 0.000 2.102 3000.000 1.208
21 525.00 1200.00 318 1177 96 0.000 2.102 3000.000 1.208
22 550.00 1200.00 294 1348 187 0.000 2.102 3000.000 1.208
23 575.00 1200.00 301 1059 315 0.000 2.102 3000.000 1.208
24 600.00 1200.00 235 1023 323 0.000 2.102 3000.000 1.208
25 625.00 1200.00 155 1081 141 0.000 2.102 3000.000 1.208
26 650.00 1200.00 65 1193 105 0.000 2.102 3000.000 1.208
27 675.00 1200.00 81 1314 258 0.000 2.102 3000.000 1.208
28 700.00 1200.00 145 1011 468 0.000 2.102 3000.000 1.208
29 725.00 1200.00 144 704 559 0.000 2.102 3000.000 1.208
30 750.00 1200.00 126 618 554 0.000 2.102 3000.000 1.208
31 775.00 1200.00 72 569 572 0.000 2.102 3000.000 1.208
32 800.00 1200.00 90 600 537 0.000 2.102 3000.000 1.208
33 825.00 1200.00 217 802 277 0.000 2.102 3000.000 1.208
34 850.00 1200.00 270 1057 107 0.000 2.102 3000.000 1.208
35 875.00 1200.00 325 1284 131 0.000 2.102 3000.000 1.208
36 900.00 1200.00 277 1198 277 0.000 2.102 3000.000 1.208
37 925.00 1200.00 244 995 286 0.000 2.102 3000.000 1.208
38 950.00 1200.00 169 1023 235 0.000 2.102 3000.000 1.208
39 975.00 1200.00 85 1121 110 0.000 2.102 3000.000 1.208
