# BinNR microsec tot-time (s)  O-Beam AUX Ampl(V) f(Hz) phase(deg) chi(pos)
0 0.00 1200.00 136 228 0.630 10000.000 0.000 -0.483
1 3.00 1200.00 226 454 0.630 10000.000 0.000 -0.483
2 6.00 1200.00 213 441 0.630 10000.000 0.000 -0.483
3 9.00 1200.00 239 462 0.630 10000.000 0.000 -0.483
4 12.00 1200.00 240 507 0.630 10000.000 0.000 -0.483
5 15.00 1200.00 241 523 0.630 10000.000 0.000 -0.483
6 18.00 1200.00 235 500 0.630 10000.000 0.000 -0.483
7 21.00 1200.00 205 453 0.630 10000.000 0.000 -0.483
8 24.00 1200.00 264 491 0.630 10000.000 0.000 -0.483
9 27.00 1200.00 226 406 0.630 10000.000 0.000 -0.483
10 30.00 1200.00 242 458 0.630 10000.000 0.000 -0.483
11 33.00 1200.00 225 475 0.630 10000.000 0.000 -0.483
12 36.00 1200.00 262 438 0.630 10000.000 0.000 -0.483
13 39.00 1200.00 244 414 0.630 10000.000 0.000 -0.483
14 42.00 1200.00 228 440 0.630 10000.000 0.000 -0.483
15 45.00 1200.00 251 460 0.630 10000.000 0.000 -0.483
16 48.00 1200.00 211 469 0.630 10000.000 0.000 -0.483
17 51.00 1200.00 229 479 0.630 10000.000 0.000 -0.483
18 54.00 1200.00 254 479 0.630 10000.000 0.000 -0.483
19 57.00 1200.00 209 536 0.630 10000.000 0.000 -0.483
20 60.00 1200.00 200 586 0.630 10000.000 0.000 -0.483
21 63.00 1200.00 194 563 0.630 10000.000 0.000 -0.483
22 66.00 1200.00 198 580 0.630 10000.000 0.000 -0.483
23 69.00 1200.00 196 561 0.630 10000.000 0.000 -0.483
24 72.00 1200.00 199 589 0.630 10000.000 0.000 -0.483
25 75.00 1200.00 217 570 0.630 10000.000 0.000 -0.483
26 78.00 1200.00 251 581 0.630 10000.000 0.000 -0.483
27 81.00 1200.00 231 575 0.630 10000.000 0.000 -0.483
28 84.00 1200.00 216 609 0.630 10000.000 0.000 -0.483
29 87.00 1200.00 206 555 0.630 10000.000 0.000 -0.483
30 90.00 1200.00 227 605 0.630 10000.000 0.000 -0.483
31 93.00 1200.00 248 584 0.630 10000.000 0.000 -0.483
32 96.00 1200.00 195 520 0.630 10000.000 0.000 -0.483
33 99.00 1200.00 222 522 0.630 10000.000 0.000 -0.483
34 102.00 1200.00 238 572 0.630 10000.000 0.000 -0.483
35 105.00 1200.00 229 513 0.630 10000.000 0.000 -0.483
36 108.00 1200.00 251 494 0.630 10000.000 0.000 -0.483
37 111.00 1200.00 235 469 0.630 10000.000 0.000 -0.483
38 114.00 1200.00 241 485 0.630 10000.000 0.000 -0.483
39 117.00 1200.00 257 406 0.630 10000.000 0.000 -0.483
40 120.00 1200.00 267 398 0.630 10000.000 0.000 -0.483
41 123.00 1200.00 233 390 0.630 10000.000 0.000 -0.483
42 126.00 1200.00 234 441 0.630 10000.000 0.000 -0.483
43 129.00 1200.00 249 355 0.630 10000.000 0.000 -0.483
44 132.00 1200.00 271 422 0.630 10000.000 0.000 -0.483
45 135.00 1200.00 226 412 0.630 10000.000 0.000 -0.483
46 138.00 1200.00 237 401 0.630 10000.000 0.000 -0.483
47 141.00 1200.00 225 395 0.630 10000.000 0.000 -0.483
48 144.00 1200.00 252 455 0.630 10000.000 0.000 -0.483
49 147.00 1200.00 218 469 0.630 10000.000 0.000 -0.483
50 150.00 1200.00 219 448 0.630 10000.000 0.000 -0.483
51 153.00 1200.00 217 510 0.630 10000.000 0.000 -0.483
52 156.00 1200.00 227 548 0.630 10000.000 0.000 -0.483
53 159.00 1200.00 234 539 0.630 10000.000 0.000 -0.483
54 162.00 1200.00 214 575 0.630 10000.000 0.000 -0.483
55 165.00 1200.00 232 552 0.630 10000.000 0.000 -0.483
56 168.00 1200.00 219 617 0.630 10000.000 0.000 -0.483
57 171.00 1200.00 228 584 0.630 10000.000 0.000 -0.483
58 174.00 1200.00 207 539 0.630 10000.000 0.000 -0.483
59 177.00 1200.00 212 613 0.630 10000.000 0.000 -0.483
60 180.00 1200.00 211 583 0.630 10000.000 0.000 -0.483
61 183.00 1200.00 245 524 0.630 10000.000 0.000 -0.483
62 186.00 1200.00 219 596 0.630 10000.000 0.000 -0.483
63 189.00 1200.00 216 578 0.630 10000.000 0.000 -0.483
64 192.00 1200.00 221 627 0.630 10000.000 0.000 -0.483
65 195.00 1200.00 219 542 0.630 10000.000 0.000 -0.483
66 198.00 1200.00 227 555 0.630 10000.000 0.000 -0.483
67 201.00 1200.00 224 535 0.630 10000.000 0.000 -0.483
68 204.00 1200.00 231 494 0.630 10000.000 0.000 -0.483
69 207.00 1200.00 243 479 0.630 10000.000 0.000 -0.483
70 210.00 1200.00 208 498 0.630 10000.000 0.000 -0.483
71 213.00 1200.00 239 466 0.630 10000.000 0.000 -0.483
72 216.00 1200.00 257 410 0.630 10000.000 0.000 -0.483
73 219.00 1200.00 238 434 0.630 10000.000 0.000 -0.483
74 222.00 1200.00 254 390 0.630 10000.000 0.000 -0.483
75 225.00 1200.00 276 397 0.630 10000.000 0.000 -0.483
76 228.00 1200.00 257 420 0.630 10000.000 0.000 -0.483
77 231.00 1200.00 218 356 0.630 10000.000 0.000 -0.483
78 234.00 1200.00 234 421 0.630 10000.000 0.000 -0.483
79 237.00 1200.00 222 356 0.630 10000.000 0.000 -0.483
80 240.00 1200.00 225 418 0.630 10000.000 0.000 -0.483
81 243.00 1200.00 227 443 0.630 10000.000 0.000 -0.483
82 246.00 1200.00 246 448 0.630 10000.000 0.000 -0.483
83 249.00 1200.00 215 459 0.630 10000.000 0.000 -0.483
84 252.00 1200.00 218 490 0.630 10000.000 0.000 -0.483
85 255.00 1200.00 235 536 0.630 10000.000 0.000 -0.483
86 258.00 1200.00 252 508 0.630 10000.000 0.000 -0.483
87 261.00 1200.00 230 517 0.630 10000.000 0.000 -0.483
88 264.00 1200.00 216 621 0.630 10000.000 0.000 -0.483
89 267.00 1200.00 239 535 0.630 10000.000 0.000 -0.483
90 270.00 1200.00 254 554 0.630 10000.000 0.000 -0.483
91 273.00 1200.00 227 567 0.630 10000.000 0.000 -0.483
92 276.00 1200.00 236 624 0.630 10000.000 0.000 -0.483
93 279.00 1200.00 229 615 0.630 10000.000 0.000 -0.483
94 282.00 1200.00 211 610 0.630 10000.000 0.000 -0.483
95 285.00 1200.00 236 547 0.630 10000.000 0.000 -0.483
96 288.00 1200.00 236 582 0.630 10000.000 0.000 -0.483
97 291.00 1200.00 229 590 0.630 10000.000 0.000 -0.483
98 294.00 1200.00 225 588 0.630 10000.000 0.000 -0.483
99 297.00 1200.00 235 562 0.630 10000.000 0.000 -0.483
100 300.00 1200.00 231 539 0.630 10000.000 0.000 -0.483
101 303.00 1200.00 225 450 0.630 10000.000 0.000 -0.483
102 306.00 1200.00 202 531 0.630 10000.000 0.000 -0.483
103 309.00 1200.00 214 453 0.630 10000.000 0.000 -0.483
104 312.00 1200.00 257 459 0.630 10000.000 0.000 -0.483
105 315.00 1200.00 216 447 0.630 10000.000 0.000 -0.483
106 318.00 1200.00 231 434 0.630 10000.000 0.000 -0.483
107 321.00 1200.00 233 429 0.630 10000.000 0.000 -0.483
108 324.00 1200.00 224 378 0.630 10000.000 0.000 -0.483
109 327.00 1200.00 233 372 0.630 10000.000 0.000 -0.483
110 330.00 1200.00 234 397 0.630 10000.000 0.000 -0.483
111 333.00 1200.00 219 413 0.630 10000.000 0.000 -0.483
112 336.00 1200.00 253 373 0.630 10000.000 0.000 -0.483
113 339.00 1200.00 253 396 0.630 10000.000 0.000 -0.483
114 342.00 1200.00 251 457 0.630 10000.000 0.000 -0.483
115 345.00 1200.00 246 432 0.630 10000.000 0.000 -0.483
116 348.00 1200.00 221 491 0.630 10000.000 0.000 -0.483
117 351.00 1200.00 233 461 0.630 10000.000 0.000 -0.483
118 354.00 1200.00 222 468 0.630 10000.000 0.000 -0.483
119 357.00 1200.00 209 519 0.630 10000.000 0.000 -0.483
120 360.00 1200.00 256 558 0.630 10000.000 0.000 -0.483
121 363.00 1200.00 249 519 0.630 10000.000 0.000 -0.483
122 366.00 1200.00 239 613 0.630 10000.000 0.000 -0.483
123 369.00 1200.00 261 552 0.630 10000.000 0.000 -0.483
124 372.00 1200.00 253 606 0.630 10000.000 0.000 -0.483
125 375.00 1200.00 212 609 0.630 10000.000 0.000 -0.483
126 378.00 1200.00 233 572 0.630 10000.000 0.000 -0.483
127 381.00 1200.00 246 585 0.630 10000.000 0.000 -0.483
128 384.00 1200.00 219 557 0.630 10000.000 0.000 -0.483
129 387.00 1200.00 211 570 0.630 10000.000 0.000 -0.483
130 390.00 1200.00 216 556 0.630 10000.000 0.000 -0.483
131 393.00 1200.00 196 535 0.630 10000.000 0.000 -0.483
132 396.00 1200.00 213 549 0.630 10000.000 0.000 -0.483
133 399.00 1200.00 181 504 0.630 10000.000 0.000 -0.483
134 402.00 1200.00 199 581 0.630 10000.000 0.000 -0.483
135 405.00 1200.00 205 521 0.630 10000.000 0.000 -0.483
136 408.00 1200.00 217 463 0.630 10000.000 0.000 -0.483
137 411.00 1200.00 221 499 0.630 10000.000 0.000 -0.483
138 414.00 1200.00 235 452 0.630 10000.000 0.000 -0.483
139 417.00 1200.00 221 470 0.630 10000.000 0.000 -0.483
140 420.00 1200.00 198 466 0.630 10000.000 0.000 -0.483
141 423.00 1200.00 221 522 0.630 10000.000 0.000 -0.483
