# BinNR microsec tot-time (s)  O-Beam AUX Ampl(V) f(Hz) phase(deg) chi(pos)
0 0.00 1200.00 83 86 2.660 10000.000 0.000 0.330
1 3.00 1200.00 183 165 2.660 10000.000 0.000 0.330
2 6.00 1200.00 188 176 2.660 10000.000 0.000 0.330
3 9.00 1200.00 192 167 2.660 10000.000 0.000 0.330
4 12.00 1200.00 192 160 2.660 10000.000 0.000 0.330
5 15.00 1200.00 177 175 2.660 10000.000 0.000 0.330
6 18.00 1200.00 208 136 2.660 10000.000 0.000 0.330
7 21.00 1200.00 223 120 2.660 10000.000 0.000 0.330
8 24.00 1200.00 198 128 2.660 10000.000 0.000 0.330
9 27.00 1200.00 203 98 2.660 10000.000 0.000 0.330
10 30.00 1200.00 205 128 2.660 10000.000 0.000 0.330
11 33.00 1200.00 191 122 2.660 10000.000 0.000 0.330
12 36.00 1200.00 203 114 2.660 10000.000 0.000 0.330
13 39.00 1200.00 168 135 2.660 10000.000 0.000 0.330
14 42.00 1200.00 161 158 2.660 10000.000 0.000 0.330
15 45.00 1200.00 145 171 2.660 10000.000 0.000 0.330
16 48.00 1200.00 112 203 2.660 10000.000 0.000 0.330
17 51.00 1200.00 118 267 2.660 10000.000 0.000 0.330
18 54.00 1200.00 71 351 2.660 10000.000 0.000 0.330
19 57.00 1200.00 96 390 2.660 10000.000 0.000 0.330
20 60.00 1200.00 79 479 2.660 10000.000 0.000 0.330
21 63.00 1200.00 64 519 2.660 10000.000 0.000 0.330
22 66.00 1200.00 79 517 2.660 10000.000 0.000 0.330
23 69.00 1200.00 63 539 2.660 10000.000 0.000 0.330
24 72.00 1200.00 71 521 2.660 10000.000 0.000 0.330
25 75.00 1200.00 89 488 2.660 10000.000 0.000 0.330
26 78.00 1200.00 101 473 2.660 10000.000 0.000 0.330
27 81.00 1200.00 96 479 2.660 10000.000 0.000 0.330
28 84.00 1200.00 119 516 2.660 10000.000 0.000 0.330
29 87.00 1200.00 141 474 2.660 10000.000 0.000 0.330
30 90.00 1200.00 171 501 2.660 10000.000 0.000 0.330
31 93.00 1200.00 171 524 2.660 10000.000 0.000 0.330
32 96.00 1200.00 168 468 2.660 10000.000 0.000 0.330
33 99.00 1200.00 189 421 2.660 10000.000 0.000 0.330
34 102.00 1200.00 213 379 2.660 10000.000 0.000 0.330
35 105.00 1200.00 183 294 2.660 10000.000 0.000 0.330
36 108.00 1200.00 191 228 2.660 10000.000 0.000 0.330
37 111.00 1200.00 179 170 2.660 10000.000 0.000 0.330
38 114.00 1200.00 200 111 2.660 10000.000 0.000 0.330
39 117.00 1200.00 205 139 2.660 10000.000 0.000 0.330
40 120.00 1200.00 210 126 2.660 10000.000 0.000 0.330
41 123.00 1200.00 193 127 2.660 10000.000 0.000 0.330
42 126.00 1200.00 176 144 2.660 10000.000 0.000 0.330
43 129.00 1200.00 217 121 2.660 10000.000 0.000 0.330
44 132.00 1200.00 213 126 2.660 10000.000 0.000 0.330
45 135.00 1200.00 202 151 2.660 10000.000 0.000 0.330
46 138.00 1200.00 183 101 2.660 10000.000 0.000 0.330
47 141.00 1200.00 172 112 2.660 10000.000 0.000 0.330
48 144.00 1200.00 147 131 2.660 10000.000 0.000 0.330
49 147.00 1200.00 123 125 2.660 10000.000 0.000 0.330
50 150.00 1200.00 143 164 2.660 10000.000 0.000 0.330
51 153.00 1200.00 103 255 2.660 10000.000 0.000 0.330
52 156.00 1200.00 93 326 2.660 10000.000 0.000 0.330
53 159.00 1200.00 82 414 2.660 10000.000 0.000 0.330
54 162.00 1200.00 79 460 2.660 10000.000 0.000 0.330
55 165.00 1200.00 77 503 2.660 10000.000 0.000 0.330
56 168.00 1200.00 66 540 2.660 10000.000 0.000 0.330
57 171.00 1200.00 76 517 2.660 10000.000 0.000 0.330
58 174.00 1200.00 82 483 2.660 10000.000 0.000 0.330
59 177.00 1200.00 74 477 2.660 10000.000 0.000 0.330
60 180.00 1200.00 112 530 2.660 10000.000 0.000 0.330
61 183.00 1200.00 112 476 2.660 10000.000 0.000 0.330
62 186.00 1200.00 117 561 2.660 10000.000 0.000 0.330
63 189.00 1200.00 162 559 2.660 10000.000 0.000 0.330
64 192.00 1200.00 169 560 2.660 10000.000 0.000 0.330
65 195.00 1200.00 162 511 2.660 10000.000 0.000 0.330
66 198.00 1200.00 192 459 2.660 10000.000 0.000 0.330
67 201.00 1200.00 184 425 2.660 10000.000 0.000 0.330
68 204.00 1200.00 197 321 2.660 10000.000 0.000 0.330
69 207.00 1200.00 191 256 2.660 10000.000 0.000 0.330
70 210.00 1200.00 210 177 2.660 10000.000 0.000 0.330
71 213.00 1200.00 219 139 2.660 10000.000 0.000 0.330
72 216.00 1200.00 209 114 2.660 10000.000 0.000 0.330
73 219.00 1200.00 166 120 2.660 10000.000 0.000 0.330
74 222.00 1200.00 212 114 2.660 10000.000 0.000 0.330
75 225.00 1200.00 195 124 2.660 10000.000 0.000 0.330
76 228.00 1200.00 195 148 2.660 10000.000 0.000 0.330
77 231.00 1200.00 223 118 2.660 10000.000 0.000 0.330
78 234.00 1200.00 202 117 2.660 10000.000 0.000 0.330
79 237.00 1200.00 181 134 2.660 10000.000 0.000 0.330
80 240.00 1200.00 193 118 2.660 10000.000 0.000 0.330
81 243.00 1200.00 160 96 2.660 10000.000 0.000 0.330
82 246.00 1200.00 147 139 2.660 10000.000 0.000 0.330
83 249.00 1200.00 129 139 2.660 10000.000 0.000 0.330
84 252.00 1200.00 116 233 2.660 10000.000 0.000 0.330
85 255.00 1200.00 118 284 2.660 10000.000 0.000 0.330
86 258.00 1200.00 107 420 2.660 10000.000 0.000 0.330
87 261.00 1200.00 128 443 2.660 10000.000 0.000 0.330
88 264.00 1200.00 133 467 2.660 10000.000 0.000 0.330
89 267.00 1200.00 127 497 2.660 10000.000 0.000 0.330
90 270.00 1200.00 120 560 2.660 10000.000 0.000 0.330
91 273.00 1200.00 107 525 2.660 10000.000 0.000 0.330
92 276.00 1200.00 127 556 2.660 10000.000 0.000 0.330
93 279.00 1200.00 122 481 2.660 10000.000 0.000 0.330
94 282.00 1200.00 109 507 2.660 10000.000 0.000 0.330
95 285.00 1200.00 89 503 2.660 10000.000 0.000 0.330
96 288.00 1200.00 106 517 2.660 10000.000 0.000 0.330
97 291.00 1200.00 112 501 2.660 10000.000 0.000 0.330
98 294.00 1200.00 72 527 2.660 10000.000 0.000 0.330
99 297.00 1200.00 89 461 2.660 10000.000 0.000 0.330
100 300.00 1200.00 88 400 2.660 10000.000 0.000 0.330
101 303.00 1200.00 95 338 2.660 10000.000 0.000 0.330
102 306.00 1200.00 93 267 2.660 10000.000 0.000 0.330
103 309.00 1200.00 110 200 2.660 10000.000 0.000 0.330
104 312.00 1200.00 130 154 2.660 10000.000 0.000 0.330
105 315.00 1200.00 138 137 2.660 10000.000 0.000 0.330
106 318.00 1200.00 143 102 2.660 10000.000 0.000 0.330
107 321.00 1200.00 164 112 2.660 10000.000 0.000 0.330
108 324.00 1200.00 192 134 2.660 10000.000 0.000 0.330
109 327.00 1200.00 165 121 2.660 10000.000 0.000 0.330
110 330.00 1200.00 195 157 2.660 10000.000 0.000 0.330
111 333.00 1200.00 201 111 2.660 10000.000 0.000 0.330
112 336.00 1200.00 218 132 2.660 10000.000 0.000 0.330
113 339.00 1200.00 199 117 2.660 10000.000 0.000 0.330
114 342.00 1200.00 211 116 2.660 10000.000 0.000 0.330
115 345.00 1200.00 218 121 2.660 10000.000 0.000 0.330
116 348.00 1200.00 199 150 2.660 10000.000 0.000 0.330
117 351.00 1200.00 203 224 2.660 10000.000 0.000 0.330
118 354.00 1200.00 224 277 2.660 10000.000 0.000 0.330
119 357.00 1200.00 212 332 2.660 10000.000 0.000 0.330
120 360.00 1200.00 240 429 2.660 10000.000 0.000 0.330
121 363.00 1200.00 199 481 2.660 10000.000 0.000 0.330
122 366.00 1200.00 193 565 2.660 10000.000 0.000 0.330
123 369.00 1200.00 230 521 2.660 10000.000 0.000 0.330
124 372.00 1200.00 173 512 2.660 10000.000 0.000 0.330
125 375.00 1200.00 179 496 2.660 10000.000 0.000 0.330
126 378.00 1200.00 129 510 2.660 10000.000 0.000 0.330
127 381.00 1200.00 119 485 2.660 10000.000 0.000 0.330
128 384.00 1200.00 127 540 2.660 10000.000 0.000 0.330
129 387.00 1200.00 95 508 2.660 10000.000 0.000 0.330
130 390.00 1200.00 95 494 2.660 10000.000 0.000 0.330
131 393.00 1200.00 74 521 2.660 10000.000 0.000 0.330
132 396.00 1200.00 101 516 2.660 10000.000 0.000 0.330
133 399.00 1200.00 73 424 2.660 10000.000 0.000 0.330
134 402.00 1200.00 76 377 2.660 10000.000 0.000 0.330
135 405.00 1200.00 76 290 2.660 10000.000 0.000 0.330
136 408.00 1200.00 92 229 2.660 10000.000 0.000 0.330
137 411.00 1200.00 73 171 2.660 10000.000 0.000 0.330
138 414.00 1200.00 102 150 2.660 10000.000 0.000 0.330
139 417.00 1200.00 102 138 2.660 10000.000 0.000 0.330
140 420.00 1200.00 124 136 2.660 10000.000 0.000 0.330
141 423.00 1200.00 152 174 2.660 10000.000 0.000 0.330
