# BinNR microsec tot-time (s)  O-Beam AUX Ampl(V) f(Hz) phase(deg) chi(pos)
0 0.00 1500.00 190 620 2.050 10000.000 0.000 -0.670
1 3.00 1500.00 381 1237 2.050 10000.000 0.000 -0.670
2 6.00 1500.00 366 1300 2.050 10000.000 0.000 -0.670
3 9.00 1500.00 354 1302 2.050 10000.000 0.000 -0.670
4 12.00 1500.00 392 1467 2.050 10000.000 0.000 -0.670
5 15.00 1500.00 420 1387 2.050 10000.000 0.000 -0.670
6 18.00 1500.00 457 1438 2.050 10000.000 0.000 -0.670
7 21.00 1500.00 434 1512 2.050 10000.000 0.000 -0.670
8 24.00 1500.00 413 1523 2.050 10000.000 0.000 -0.670
9 27.00 1500.00 434 1485 2.050 10000.000 0.000 -0.670
10 30.00 1500.00 490 1519 2.050 10000.000 0.000 -0.670
11 33.00 1500.00 441 1503 2.050 10000.000 0.000 -0.670
12 36.00 1500.00 454 1501 2.050 10000.000 0.000 -0.670
13 39.00 1500.00 489 1499 2.050 10000.000 0.000 -0.670
14 42.00 1500.00 444 1513 2.050 10000.000 0.000 -0.670
15 45.00 1500.00 475 1504 2.050 10000.000 0.000 -0.670
16 48.00 1500.00 492 1474 2.050 10000.000 0.000 -0.670
17 51.00 1500.00 497 1500 2.050 10000.000 0.000 -0.670
18 54.00 1500.00 456 1517 2.050 10000.000 0.000 -0.670
19 57.00 1500.00 496 1490 2.050 10000.000 0.000 -0.670
20 60.00 1500.00 462 1527 2.050 10000.000 0.000 -0.670
21 63.00 1500.00 448 1489 2.050 10000.000 0.000 -0.670
22 66.00 1500.00 448 1495 2.050 10000.000 0.000 -0.670
23 69.00 1500.00 437 1484 2.050 10000.000 0.000 -0.670
24 72.00 1500.00 402 1484 2.050 10000.000 0.000 -0.670
25 75.00 1500.00 398 1423 2.050 10000.000 0.000 -0.670
26 78.00 1500.00 379 1372 2.050 10000.000 0.000 -0.670
27 81.00 1500.00 399 1356 2.050 10000.000 0.000 -0.670
28 84.00 1500.00 386 1290 2.050 10000.000 0.000 -0.670
29 87.00 1500.00 364 1179 2.050 10000.000 0.000 -0.670
30 90.00 1500.00 376 1267 2.050 10000.000 0.000 -0.670
31 93.00 1500.00 356 1200 2.050 10000.000 0.000 -0.670
32 96.00 1500.00 366 1164 2.050 10000.000 0.000 -0.670
33 99.00 1500.00 338 1208 2.050 10000.000 0.000 -0.670
34 102.00 1500.00 397 1136 2.050 10000.000 0.000 -0.670
35 105.00 1500.00 420 1209 2.050 10000.000 0.000 -0.670
36 108.00 1500.00 381 1280 2.050 10000.000 0.000 -0.670
37 111.00 1500.00 359 1261 2.050 10000.000 0.000 -0.670
38 114.00 1500.00 417 1387 2.050 10000.000 0.000 -0.670
39 117.00 1500.00 433 1401 2.050 10000.000 0.000 -0.670
40 120.00 1500.00 400 1445 2.050 10000.000 0.000 -0.670
41 123.00 1500.00 425 1486 2.050 10000.000 0.000 -0.670
42 126.00 1500.00 442 1595 2.050 10000.000 0.000 -0.670
43 129.00 1500.00 430 1494 2.050 10000.000 0.000 -0.670
44 132.00 1500.00 428 1526 2.050 10000.000 0.000 -0.670
45 135.00 1500.00 447 1520 2.050 10000.000 0.000 -0.670
46 138.00 1500.00 460 1544 2.050 10000.000 0.000 -0.670
47 141.00 1500.00 478 1562 2.050 10000.000 0.000 -0.670
48 144.00 1500.00 457 1458 2.050 10000.000 0.000 -0.670
49 147.00 1500.00 440 1554 2.050 10000.000 0.000 -0.670
50 150.00 1500.00 495 1482 2.050 10000.000 0.000 -0.670
51 153.00 1500.00 461 1441 2.050 10000.000 0.000 -0.670
52 156.00 1500.00 487 1538 2.050 10000.000 0.000 -0.670
53 159.00 1500.00 443 1435 2.050 10000.000 0.000 -0.670
54 162.00 1500.00 441 1518 2.050 10000.000 0.000 -0.670
55 165.00 1500.00 468 1458 2.050 10000.000 0.000 -0.670
56 168.00 1500.00 454 1545 2.050 10000.000 0.000 -0.670
57 171.00 1500.00 400 1405 2.050 10000.000 0.000 -0.670
58 174.00 1500.00 437 1429 2.050 10000.000 0.000 -0.670
59 177.00 1500.00 395 1392 2.050 10000.000 0.000 -0.670
60 180.00 1500.00 362 1301 2.050 10000.000 0.000 -0.670
61 183.00 1500.00 350 1356 2.050 10000.000 0.000 -0.670
62 186.00 1500.00 351 1263 2.050 10000.000 0.000 -0.670
63 189.00 1500.00 347 1160 2.050 10000.000 0.000 -0.670
64 192.00 1500.00 372 1201 2.050 10000.000 0.000 -0.670
65 195.00 1500.00 359 1111 2.050 10000.000 0.000 -0.670
66 198.00 1500.00 372 1150 2.050 10000.000 0.000 -0.670
67 201.00 1500.00 369 1152 2.050 10000.000 0.000 -0.670
68 204.00 1500.00 362 1202 2.050 10000.000 0.000 -0.670
69 207.00 1500.00 362 1252 2.050 10000.000 0.000 -0.670
70 210.00 1500.00 403 1219 2.050 10000.000 0.000 -0.670
71 213.00 1500.00 384 1362 2.050 10000.000 0.000 -0.670
72 216.00 1500.00 434 1380 2.050 10000.000 0.000 -0.670
73 219.00 1500.00 388 1412 2.050 10000.000 0.000 -0.670
74 222.00 1500.00 431 1461 2.050 10000.000 0.000 -0.670
75 225.00 1500.00 426 1454 2.050 10000.000 0.000 -0.670
76 228.00 1500.00 442 1524 2.050 10000.000 0.000 -0.670
77 231.00 1500.00 446 1484 2.050 10000.000 0.000 -0.670
78 234.00 1500.00 436 1508 2.050 10000.000 0.000 -0.670
79 237.00 1500.00 421 1569 2.050 10000.000 0.000 -0.670
80 240.00 1500.00 491 1489 2.050 10000.000 0.000 -0.670
81 243.00 1500.00 479 1479 2.050 10000.000 0.000 -0.670
82 246.00 1500.00 428 1455 2.050 10000.000 0.000 -0.670
83 249.00 1500.00 487 1462 2.050 10000.000 0.000 -0.670
84 252.00 1500.00 481 1602 2.050 10000.000 0.000 -0.670
85 255.00 1500.00 461 1515 2.050 10000.000 0.000 -0.670
86 258.00 1500.00 510 1534 2.050 10000.000 0.000 -0.670
87 261.00 1500.00 467 1465 2.050 10000.000 0.000 -0.670
88 264.00 1500.00 462 1549 2.050 10000.000 0.000 -0.670
89 267.00 1500.00 389 1509 2.050 10000.000 0.000 -0.670
90 270.00 1500.00 443 1435 2.050 10000.000 0.000 -0.670
91 273.00 1500.00 386 1456 2.050 10000.000 0.000 -0.670
92 276.00 1500.00 456 1480 2.050 10000.000 0.000 -0.670
93 279.00 1500.00 395 1379 2.050 10000.000 0.000 -0.670
94 282.00 1500.00 384 1333 2.050 10000.000 0.000 -0.670
95 285.00 1500.00 380 1228 2.050 10000.000 0.000 -0.670
96 288.00 1500.00 357 1218 2.050 10000.000 0.000 -0.670
97 291.00 1500.00 320 1236 2.050 10000.000 0.000 -0.670
98 294.00 1500.00 327 1205 2.050 10000.000 0.000 -0.670
99 297.00 1500.00 372 1163 2.050 10000.000 0.000 -0.670
100 300.00 1500.00 340 1177 2.050 10000.000 0.000 -0.670
101 303.00 1500.00 363 1180 2.050 10000.000 0.000 -0.670
102 306.00 1500.00 367 1273 2.050 10000.000 0.000 -0.670
103 309.00 1500.00 367 1373 2.050 10000.000 0.000 -0.670
104 312.00 1500.00 432 1308 2.050 10000.000 0.000 -0.670
105 315.00 1500.00 400 1382 2.050 10000.000 0.000 -0.670
106 318.00 1500.00 433 1451 2.050 10000.000 0.000 -0.670
107 321.00 1500.00 432 1420 2.050 10000.000 0.000 -0.670
108 324.00 1500.00 434 1518 2.050 10000.000 0.000 -0.670
109 327.00 1500.00 397 1516 2.050 10000.000 0.000 -0.670
110 330.00 1500.00 437 1527 2.050 10000.000 0.000 -0.670
111 333.00 1500.00 485 1535 2.050 10000.000 0.000 -0.670
112 336.00 1500.00 452 1555 2.050 10000.000 0.000 -0.670
113 339.00 1500.00 465 1440 2.050 10000.000 0.000 -0.670
114 342.00 1500.00 441 1490 2.050 10000.000 0.000 -0.670
115 345.00 1500.00 443 1502 2.050 10000.000 0.000 -0.670
116 348.00 1500.00 480 1514 2.050 10000.000 0.000 -0.670
117 351.00 1500.00 490 1522 2.050 10000.000 0.000 -0.670
118 354.00 1500.00 469 1538 2.050 10000.000 0.000 -0.670
119 357.00 1500.00 474 1490 2.050 10000.000 0.000 -0.670
120 360.00 1500.00 495 1515 2.050 10000.000 0.000 -0.670
121 363.00 1500.00 493 1477 2.050 10000.000 0.000 -0.670
122 366.00 1500.00 489 1541 2.050 10000.000 0.000 -0.670
123 369.00 1500.00 481 1468 2.050 10000.000 0.000 -0.670
124 372.00 1500.00 427 1482 2.050 10000.000 0.000 -0.670
125 375.00 1500.00 446 1438 2.050 10000.000 0.000 -0.670
126 378.00 1500.00 411 1391 2.050 10000.000 0.000 -0.670
127 381.00 1500.00 378 1329 2.050 10000.000 0.000 -0.670
128 384.00 1500.00 396 1278 2.050 10000.000 0.000 -0.670
129 387.00 1500.00 387 1169 2.050 10000.000 0.000 -0.670
130 390.00 1500.00 361 1247 2.050 10000.000 0.000 -0.670
131 393.00 1500.00 385 1199 2.050 10000.000 0.000 -0.670
132 396.00 1500.00 363 1171 2.050 10000.000 0.000 -0.670
133 399.00 1500.00 351 1162 2.050 10000.000 0.000 -0.670
134 402.00 1500.00 366 1217 2.050 10000.000 0.000 -0.670
