# BinNR microsec tot-time (s)  O-Beam AUX Ampl(V) f(Hz) phase(deg) chi(pos)
0 0.00 1500.00 98 257 2.050 10000.000 0.000 1.000
1 3.00 1500.00 209 580 2.050 10000.000 0.000 1.000
2 6.00 1500.00 197 637 2.050 10000.000 0.000 1.000
3 9.00 1500.00 223 714 2.050 10000.000 0.000 1.000
4 12.00 1500.00 261 788 2.050 10000.000 0.000 1.000
5 15.00 1500.00 284 814 2.050 10000.000 0.000 1.000
6 18.00 1500.00 272 989 2.050 10000.000 0.000 1.000
7 21.00 1500.00 296 1086 2.050 10000.000 0.000 1.000
8 24.00 1500.00 330 1107 2.050 10000.000 0.000 1.000
9 27.00 1500.00 357 1180 2.050 10000.000 0.000 1.000
10 30.00 1500.00 326 1234 2.050 10000.000 0.000 1.000
11 33.00 1500.00 374 1318 2.050 10000.000 0.000 1.000
12 36.00 1500.00 406 1319 2.050 10000.000 0.000 1.000
13 39.00 1500.00 390 1288 2.050 10000.000 0.000 1.000
14 42.00 1500.00 374 1271 2.050 10000.000 0.000 1.000
15 45.00 1500.00 403 1313 2.050 10000.000 0.000 1.000
16 48.00 1500.00 380 1270 2.050 10000.000 0.000 1.000
17 51.00 1500.00 339 1239 2.050 10000.000 0.000 1.000
18 54.00 1500.00 355 1301 2.050 10000.000 0.000 1.000
19 57.00 1500.00 355 1308 2.050 10000.000 0.000 1.000
20 60.00 1500.00 332 1234 2.050 10000.000 0.000 1.000
21 63.00 1500.00 303 1228 2.050 10000.000 0.000 1.000
22 66.00 1500.00 300 1087 2.050 10000.000 0.000 1.000
23 69.00 1500.00 301 1060 2.050 10000.000 0.000 1.000
24 72.00 1500.00 250 967 2.050 10000.000 0.000 1.000
25 75.00 1500.00 235 869 2.050 10000.000 0.000 1.000
26 78.00 1500.00 215 783 2.050 10000.000 0.000 1.000
27 81.00 1500.00 244 722 2.050 10000.000 0.000 1.000
28 84.00 1500.00 184 616 2.050 10000.000 0.000 1.000
29 87.00 1500.00 194 642 2.050 10000.000 0.000 1.000
30 90.00 1500.00 208 550 2.050 10000.000 0.000 1.000
31 93.00 1500.00 188 520 2.050 10000.000 0.000 1.000
32 96.00 1500.00 196 536 2.050 10000.000 0.000 1.000
33 99.00 1500.00 207 491 2.050 10000.000 0.000 1.000
34 102.00 1500.00 230 507 2.050 10000.000 0.000 1.000
35 105.00 1500.00 182 566 2.050 10000.000 0.000 1.000
36 108.00 1500.00 217 576 2.050 10000.000 0.000 1.000
37 111.00 1500.00 244 650 2.050 10000.000 0.000 1.000
38 114.00 1500.00 263 818 2.050 10000.000 0.000 1.000
39 117.00 1500.00 270 819 2.050 10000.000 0.000 1.000
40 120.00 1500.00 295 946 2.050 10000.000 0.000 1.000
41 123.00 1500.00 317 950 2.050 10000.000 0.000 1.000
42 126.00 1500.00 332 1060 2.050 10000.000 0.000 1.000
43 129.00 1500.00 340 1147 2.050 10000.000 0.000 1.000
44 132.00 1500.00 363 1200 2.050 10000.000 0.000 1.000
45 135.00 1500.00 356 1270 2.050 10000.000 0.000 1.000
46 138.00 1500.00 363 1393 2.050 10000.000 0.000 1.000
47 141.00 1500.00 418 1280 2.050 10000.000 0.000 1.000
48 144.00 1500.00 384 1369 2.050 10000.000 0.000 1.000
49 147.00 1500.00 376 1400 2.050 10000.000 0.000 1.000
50 150.00 1500.00 349 1276 2.050 10000.000 0.000 1.000
51 153.00 1500.00 375 1318 2.050 10000.000 0.000 1.000
52 156.00 1500.00 387 1323 2.050 10000.000 0.000 1.000
53 159.00 1500.00 325 1194 2.050 10000.000 0.000 1.000
54 162.00 1500.00 341 1218 2.050 10000.000 0.000 1.000
55 165.00 1500.00 318 1104 2.050 10000.000 0.000 1.000
56 168.00 1500.00 286 1092 2.050 10000.000 0.000 1.000
57 171.00 1500.00 299 979 2.050 10000.000 0.000 1.000
58 174.00 1500.00 249 880 2.050 10000.000 0.000 1.000
59 177.00 1500.00 248 763 2.050 10000.000 0.000 1.000
60 180.00 1500.00 207 717 2.050 10000.000 0.000 1.000
61 183.00 1500.00 221 668 2.050 10000.000 0.000 1.000
62 186.00 1500.00 187 606 2.050 10000.000 0.000 1.000
63 189.00 1500.00 214 563 2.050 10000.000 0.000 1.000
64 192.00 1500.00 189 573 2.050 10000.000 0.000 1.000
65 195.00 1500.00 211 494 2.050 10000.000 0.000 1.000
66 198.00 1500.00 186 486 2.050 10000.000 0.000 1.000
67 201.00 1500.00 192 528 2.050 10000.000 0.000 1.000
68 204.00 1500.00 218 546 2.050 10000.000 0.000 1.000
69 207.00 1500.00 242 561 2.050 10000.000 0.000 1.000
70 210.00 1500.00 229 650 2.050 10000.000 0.000 1.000
71 213.00 1500.00 291 671 2.050 10000.000 0.000 1.000
72 216.00 1500.00 312 748 2.050 10000.000 0.000 1.000
73 219.00 1500.00 304 885 2.050 10000.000 0.000 1.000
74 222.00 1500.00 295 954 2.050 10000.000 0.000 1.000
75 225.00 1500.00 319 1053 2.050 10000.000 0.000 1.000
76 228.00 1500.00 346 1118 2.050 10000.000 0.000 1.000
77 231.00 1500.00 376 1192 2.050 10000.000 0.000 1.000
78 234.00 1500.00 353 1279 2.050 10000.000 0.000 1.000
79 237.00 1500.00 388 1243 2.050 10000.000 0.000 1.000
80 240.00 1500.00 414 1283 2.050 10000.000 0.000 1.000
81 243.00 1500.00 422 1350 2.050 10000.000 0.000 1.000
82 246.00 1500.00 419 1365 2.050 10000.000 0.000 1.000
83 249.00 1500.00 359 1317 2.050 10000.000 0.000 1.000
84 252.00 1500.00 364 1319 2.050 10000.000 0.000 1.000
85 255.00 1500.00 397 1293 2.050 10000.000 0.000 1.000
86 258.00 1500.00 359 1296 2.050 10000.000 0.000 1.000
87 261.00 1500.00 345 1239 2.050 10000.000 0.000 1.000
88 264.00 1500.00 328 1116 2.050 10000.000 0.000 1.000
89 267.00 1500.00 299 1093 2.050 10000.000 0.000 1.000
90 270.00 1500.00 291 990 2.050 10000.000 0.000 1.000
91 273.00 1500.00 217 948 2.050 10000.000 0.000 1.000
92 276.00 1500.00 264 877 2.050 10000.000 0.000 1.000
93 279.00 1500.00 217 800 2.050 10000.000 0.000 1.000
94 282.00 1500.00 206 697 2.050 10000.000 0.000 1.000
95 285.00 1500.00 212 569 2.050 10000.000 0.000 1.000
96 288.00 1500.00 198 510 2.050 10000.000 0.000 1.000
97 291.00 1500.00 196 521 2.050 10000.000 0.000 1.000
98 294.00 1500.00 219 497 2.050 10000.000 0.000 1.000
99 297.00 1500.00 196 476 2.050 10000.000 0.000 1.000
100 300.00 1500.00 205 520 2.050 10000.000 0.000 1.000
101 303.00 1500.00 185 517 2.050 10000.000 0.000 1.000
102 306.00 1500.00 243 555 2.050 10000.000 0.000 1.000
103 309.00 1500.00 224 638 2.050 10000.000 0.000 1.000
104 312.00 1500.00 257 667 2.050 10000.000 0.000 1.000
105 315.00 1500.00 242 740 2.050 10000.000 0.000 1.000
106 318.00 1500.00 289 889 2.050 10000.000 0.000 1.000
107 321.00 1500.00 334 959 2.050 10000.000 0.000 1.000
108 324.00 1500.00 328 1059 2.050 10000.000 0.000 1.000
109 327.00 1500.00 353 1109 2.050 10000.000 0.000 1.000
110 330.00 1500.00 353 1184 2.050 10000.000 0.000 1.000
111 333.00 1500.00 352 1216 2.050 10000.000 0.000 1.000
112 336.00 1500.00 358 1328 2.050 10000.000 0.000 1.000
113 339.00 1500.00 358 1334 2.050 10000.000 0.000 1.000
114 342.00 1500.00 417 1426 2.050 10000.000 0.000 1.000
115 345.00 1500.00 394 1364 2.050 10000.000 0.000 1.000
116 348.00 1500.00 391 1390 2.050 10000.000 0.000 1.000
117 351.00 1500.00 363 1307 2.050 10000.000 0.000 1.000
118 354.00 1500.00 364 1360 2.050 10000.000 0.000 1.000
119 357.00 1500.00 381 1208 2.050 10000.000 0.000 1.000
120 360.00 1500.00 358 1273 2.050 10000.000 0.000 1.000
121 363.00 1500.00 346 1169 2.050 10000.000 0.000 1.000
122 366.00 1500.00 302 1068 2.050 10000.000 0.000 1.000
123 369.00 1500.00 320 1020 2.050 10000.000 0.000 1.000
124 372.00 1500.00 286 943 2.050 10000.000 0.000 1.000
125 375.00 1500.00 267 867 2.050 10000.000 0.000 1.000
126 378.00 1500.00 272 797 2.050 10000.000 0.000 1.000
127 381.00 1500.00 269 694 2.050 10000.000 0.000 1.000
128 384.00 1500.00 239 622 2.050 10000.000 0.000 1.000
129 387.00 1500.00 216 540 2.050 10000.000 0.000 1.000
130 390.00 1500.00 192 557 2.050 10000.000 0.000 1.000
131 393.00 1500.00 177 458 2.050 10000.000 0.000 1.000
132 396.00 1500.00 193 504 2.050 10000.000 0.000 1.000
133 399.00 1500.00 194 528 2.050 10000.000 0.000 1.000
134 402.00 1500.00 221 520 2.050 10000.000 0.000 1.000
