# BinNR microsec tot-time (s)  O-Beam AUX Ampl(V) f(Hz) phase(deg) chi(pos)
0 0.00 1500.01 110 170 2.050 10000.000 0.000 -1.505
1 3.00 1500.01 243 303 2.050 10000.000 0.000 -1.505
2 6.00 1500.01 237 314 2.050 10000.000 0.000 -1.505
3 9.00 1500.01 202 246 2.050 10000.000 0.000 -1.505
4 12.00 1500.01 203 247 2.050 10000.000 0.000 -1.505
5 15.00 1500.01 210 214 2.050 10000.000 0.000 -1.505
6 18.00 1500.01 211 196 2.050 10000.000 0.000 -1.505
7 21.00 1500.01 184 170 2.050 10000.000 0.000 -1.505
8 24.00 1500.01 175 196 2.050 10000.000 0.000 -1.505
9 27.00 1500.01 185 210 2.050 10000.000 0.000 -1.505
10 30.00 1500.01 172 240 2.050 10000.000 0.000 -1.505
11 33.00 1500.01 173 301 2.050 10000.000 0.000 -1.505
12 36.00 1500.01 184 275 2.050 10000.000 0.000 -1.505
13 39.00 1500.01 148 278 2.050 10000.000 0.000 -1.505
14 42.00 1500.01 156 260 2.050 10000.000 0.000 -1.505
15 45.00 1500.01 178 267 2.050 10000.000 0.000 -1.505
16 48.00 1500.01 136 276 2.050 10000.000 0.000 -1.505
17 51.00 1500.01 148 279 2.050 10000.000 0.000 -1.505
18 54.00 1500.01 146 258 2.050 10000.000 0.000 -1.505
19 57.00 1500.01 136 225 2.050 10000.000 0.000 -1.505
20 60.00 1500.01 160 256 2.050 10000.000 0.000 -1.505
21 63.00 1500.01 173 214 2.050 10000.000 0.000 -1.505
22 66.00 1500.01 144 190 2.050 10000.000 0.000 -1.505
23 69.00 1500.01 157 206 2.050 10000.000 0.000 -1.505
24 72.00 1500.01 168 216 2.050 10000.000 0.000 -1.505
25 75.00 1500.01 175 234 2.050 10000.000 0.000 -1.505
26 78.00 1500.01 213 220 2.050 10000.000 0.000 -1.505
27 81.00 1500.01 206 238 2.050 10000.000 0.000 -1.505
28 84.00 1500.01 204 308 2.050 10000.000 0.000 -1.505
29 87.00 1500.01 213 328 2.050 10000.000 0.000 -1.505
30 90.00 1500.01 246 358 2.050 10000.000 0.000 -1.505
31 93.00 1500.01 240 364 2.050 10000.000 0.000 -1.505
32 96.00 1500.01 239 388 2.050 10000.000 0.000 -1.505
33 99.00 1500.01 204 393 2.050 10000.000 0.000 -1.505
34 102.00 1500.01 225 360 2.050 10000.000 0.000 -1.505
35 105.00 1500.01 211 341 2.050 10000.000 0.000 -1.505
36 108.00 1500.01 225 341 2.050 10000.000 0.000 -1.505
37 111.00 1500.01 200 255 2.050 10000.000 0.000 -1.505
38 114.00 1500.01 199 240 2.050 10000.000 0.000 -1.505
39 117.00 1500.01 211 224 2.050 10000.000 0.000 -1.505
40 120.00 1500.01 188 196 2.050 10000.000 0.000 -1.505
41 123.00 1500.01 210 192 2.050 10000.000 0.000 -1.505
42 126.00 1500.01 170 206 2.050 10000.000 0.000 -1.505
43 129.00 1500.01 149 225 2.050 10000.000 0.000 -1.505
44 132.00 1500.01 181 224 2.050 10000.000 0.000 -1.505
45 135.00 1500.01 185 261 2.050 10000.000 0.000 -1.505
46 138.00 1500.01 179 289 2.050 10000.000 0.000 -1.505
47 141.00 1500.01 145 291 2.050 10000.000 0.000 -1.505
48 144.00 1500.01 154 333 2.050 10000.000 0.000 -1.505
49 147.00 1500.01 142 302 2.050 10000.000 0.000 -1.505
50 150.00 1500.01 144 317 2.050 10000.000 0.000 -1.505
51 153.00 1500.01 157 280 2.050 10000.000 0.000 -1.505
52 156.00 1500.01 145 259 2.050 10000.000 0.000 -1.505
53 159.00 1500.01 139 260 2.050 10000.000 0.000 -1.505
54 162.00 1500.01 152 245 2.050 10000.000 0.000 -1.505
55 165.00 1500.01 146 199 2.050 10000.000 0.000 -1.505
56 168.00 1500.01 150 202 2.050 10000.000 0.000 -1.505
57 171.00 1500.01 187 192 2.050 10000.000 0.000 -1.505
58 174.00 1500.01 173 185 2.050 10000.000 0.000 -1.505
59 177.00 1500.01 176 232 2.050 10000.000 0.000 -1.505
60 180.00 1500.01 202 262 2.050 10000.000 0.000 -1.505
61 183.00 1500.01 187 288 2.050 10000.000 0.000 -1.505
62 186.00 1500.01 223 295 2.050 10000.000 0.000 -1.505
63 189.00 1500.01 219 304 2.050 10000.000 0.000 -1.505
64 192.00 1500.01 239 392 2.050 10000.000 0.000 -1.505
65 195.00 1500.01 231 381 2.050 10000.000 0.000 -1.505
66 198.00 1500.01 253 381 2.050 10000.000 0.000 -1.505
67 201.00 1500.01 228 362 2.050 10000.000 0.000 -1.505
68 204.00 1500.01 269 341 2.050 10000.000 0.000 -1.505
69 207.00 1500.01 215 327 2.050 10000.000 0.000 -1.505
70 210.00 1500.01 221 286 2.050 10000.000 0.000 -1.505
71 213.00 1500.01 222 255 2.050 10000.000 0.000 -1.505
72 216.00 1500.01 212 248 2.050 10000.000 0.000 -1.505
73 219.00 1500.01 192 196 2.050 10000.000 0.000 -1.505
74 222.00 1500.01 160 209 2.050 10000.000 0.000 -1.505
75 225.00 1500.01 165 194 2.050 10000.000 0.000 -1.505
76 228.00 1500.01 158 221 2.050 10000.000 0.000 -1.505
77 231.00 1500.01 174 240 2.050 10000.000 0.000 -1.505
78 234.00 1500.01 146 258 2.050 10000.000 0.000 -1.505
79 237.00 1500.01 169 245 2.050 10000.000 0.000 -1.505
80 240.00 1500.01 165 284 2.050 10000.000 0.000 -1.505
81 243.00 1500.01 164 293 2.050 10000.000 0.000 -1.505
82 246.00 1500.01 180 355 2.050 10000.000 0.000 -1.505
83 249.00 1500.01 156 287 2.050 10000.000 0.000 -1.505
84 252.00 1500.01 140 311 2.050 10000.000 0.000 -1.505
85 255.00 1500.01 150 299 2.050 10000.000 0.000 -1.505
86 258.00 1500.01 154 278 2.050 10000.000 0.000 -1.505
87 261.00 1500.01 152 233 2.050 10000.000 0.000 -1.505
88 264.00 1500.01 162 247 2.050 10000.000 0.000 -1.505
89 267.00 1500.01 159 230 2.050 10000.000 0.000 -1.505
90 270.00 1500.01 154 206 2.050 10000.000 0.000 -1.505
91 273.00 1500.01 165 204 2.050 10000.000 0.000 -1.505
92 276.00 1500.01 171 249 2.050 10000.000 0.000 -1.505
93 279.00 1500.01 219 258 2.050 10000.000 0.000 -1.505
94 282.00 1500.01 227 315 2.050 10000.000 0.000 -1.505
95 285.00 1500.01 226 326 2.050 10000.000 0.000 -1.505
96 288.00 1500.01 230 353 2.050 10000.000 0.000 -1.505
97 291.00 1500.01 232 369 2.050 10000.000 0.000 -1.505
98 294.00 1500.01 245 394 2.050 10000.000 0.000 -1.505
99 297.00 1500.01 254 360 2.050 10000.000 0.000 -1.505
100 300.00 1500.01 235 398 2.050 10000.000 0.000 -1.505
101 303.00 1500.01 218 361 2.050 10000.000 0.000 -1.505
102 306.00 1500.01 237 304 2.050 10000.000 0.000 -1.505
103 309.00 1500.01 226 268 2.050 10000.000 0.000 -1.505
104 312.00 1500.01 205 273 2.050 10000.000 0.000 -1.505
105 315.00 1500.01 207 229 2.050 10000.000 0.000 -1.505
106 318.00 1500.01 181 191 2.050 10000.000 0.000 -1.505
107 321.00 1500.01 193 175 2.050 10000.000 0.000 -1.505
108 324.00 1500.01 187 211 2.050 10000.000 0.000 -1.505
109 327.00 1500.01 160 188 2.050 10000.000 0.000 -1.505
110 330.00 1500.01 187 244 2.050 10000.000 0.000 -1.505
111 333.00 1500.01 182 239 2.050 10000.000 0.000 -1.505
112 336.00 1500.01 161 232 2.050 10000.000 0.000 -1.505
113 339.00 1500.01 153 279 2.050 10000.000 0.000 -1.505
114 342.00 1500.01 167 316 2.050 10000.000 0.000 -1.505
115 345.00 1500.01 167 295 2.050 10000.000 0.000 -1.505
116 348.00 1500.01 155 316 2.050 10000.000 0.000 -1.505
117 351.00 1500.01 143 304 2.050 10000.000 0.000 -1.505
118 354.00 1500.01 160 285 2.050 10000.000 0.000 -1.505
119 357.00 1500.01 146 266 2.050 10000.000 0.000 -1.505
120 360.00 1500.01 138 245 2.050 10000.000 0.000 -1.505
121 363.00 1500.01 178 219 2.050 10000.000 0.000 -1.505
122 366.00 1500.01 144 204 2.050 10000.000 0.000 -1.505
123 369.00 1500.01 153 199 2.050 10000.000 0.000 -1.505
124 372.00 1500.01 139 189 2.050 10000.000 0.000 -1.505
125 375.00 1500.01 152 207 2.050 10000.000 0.000 -1.505
126 378.00 1500.01 167 262 2.050 10000.000 0.000 -1.505
127 381.00 1500.01 221 282 2.050 10000.000 0.000 -1.505
128 384.00 1500.01 210 303 2.050 10000.000 0.000 -1.505
129 387.00 1500.01 204 319 2.050 10000.000 0.000 -1.505
130 390.00 1500.01 209 357 2.050 10000.000 0.000 -1.505
131 393.00 1500.01 236 371 2.050 10000.000 0.000 -1.505
132 396.00 1500.01 215 402 2.050 10000.000 0.000 -1.505
133 399.00 1500.01 252 345 2.050 10000.000 0.000 -1.505
134 402.00 1500.01 241 344 2.050 10000.000 0.000 -1.505
