# BinNR microsec tot-time (s)  O-Beam AUX Ampl(V) f(Hz) phase(deg) chi(pos)
0 0.00 1500.01 202 733 2.050 10000.000 0.000 -0.516
1 3.00 1500.01 416 1525 2.050 10000.000 0.000 -0.516
2 6.00 1500.01 470 1556 2.050 10000.000 0.000 -0.516
3 9.00 1500.01 475 1547 2.050 10000.000 0.000 -0.516
4 12.00 1500.01 442 1525 2.050 10000.000 0.000 -0.516
5 15.00 1500.01 464 1502 2.050 10000.000 0.000 -0.516
6 18.00 1500.01 443 1577 2.050 10000.000 0.000 -0.516
7 21.00 1500.01 478 1484 2.050 10000.000 0.000 -0.516
8 24.00 1500.01 460 1450 2.050 10000.000 0.000 -0.516
9 27.00 1500.01 461 1440 2.050 10000.000 0.000 -0.516
10 30.00 1500.01 429 1432 2.050 10000.000 0.000 -0.516
11 33.00 1500.01 434 1404 2.050 10000.000 0.000 -0.516
12 36.00 1500.01 494 1365 2.050 10000.000 0.000 -0.516
13 39.00 1500.01 486 1348 2.050 10000.000 0.000 -0.516
14 42.00 1500.01 480 1363 2.050 10000.000 0.000 -0.516
15 45.00 1500.01 479 1362 2.050 10000.000 0.000 -0.516
16 48.00 1500.01 501 1398 2.050 10000.000 0.000 -0.516
17 51.00 1500.01 498 1335 2.050 10000.000 0.000 -0.516
18 54.00 1500.01 458 1399 2.050 10000.000 0.000 -0.516
19 57.00 1500.01 439 1399 2.050 10000.000 0.000 -0.516
20 60.00 1500.01 508 1371 2.050 10000.000 0.000 -0.516
21 63.00 1500.01 475 1477 2.050 10000.000 0.000 -0.516
22 66.00 1500.01 465 1454 2.050 10000.000 0.000 -0.516
23 69.00 1500.01 461 1503 2.050 10000.000 0.000 -0.516
24 72.00 1500.01 491 1573 2.050 10000.000 0.000 -0.516
25 75.00 1500.01 445 1510 2.050 10000.000 0.000 -0.516
26 78.00 1500.01 498 1522 2.050 10000.000 0.000 -0.516
27 81.00 1500.01 476 1532 2.050 10000.000 0.000 -0.516
28 84.00 1500.01 429 1552 2.050 10000.000 0.000 -0.516
29 87.00 1500.01 431 1509 2.050 10000.000 0.000 -0.516
30 90.00 1500.01 465 1471 2.050 10000.000 0.000 -0.516
31 93.00 1500.01 437 1451 2.050 10000.000 0.000 -0.516
32 96.00 1500.01 453 1473 2.050 10000.000 0.000 -0.516
33 99.00 1500.01 427 1396 2.050 10000.000 0.000 -0.516
34 102.00 1500.01 460 1523 2.050 10000.000 0.000 -0.516
35 105.00 1500.01 429 1509 2.050 10000.000 0.000 -0.516
36 108.00 1500.01 466 1518 2.050 10000.000 0.000 -0.516
37 111.00 1500.01 451 1533 2.050 10000.000 0.000 -0.516
38 114.00 1500.01 456 1495 2.050 10000.000 0.000 -0.516
39 117.00 1500.01 491 1510 2.050 10000.000 0.000 -0.516
40 120.00 1500.01 483 1574 2.050 10000.000 0.000 -0.516
41 123.00 1500.01 466 1497 2.050 10000.000 0.000 -0.516
42 126.00 1500.01 457 1538 2.050 10000.000 0.000 -0.516
43 129.00 1500.01 460 1444 2.050 10000.000 0.000 -0.516
44 132.00 1500.01 436 1403 2.050 10000.000 0.000 -0.516
45 135.00 1500.01 451 1378 2.050 10000.000 0.000 -0.516
46 138.00 1500.01 456 1349 2.050 10000.000 0.000 -0.516
47 141.00 1500.01 432 1286 2.050 10000.000 0.000 -0.516
48 144.00 1500.01 443 1258 2.050 10000.000 0.000 -0.516
49 147.00 1500.01 450 1235 2.050 10000.000 0.000 -0.516
50 150.00 1500.01 436 1336 2.050 10000.000 0.000 -0.516
51 153.00 1500.01 524 1389 2.050 10000.000 0.000 -0.516
52 156.00 1500.01 471 1358 2.050 10000.000 0.000 -0.516
53 159.00 1500.01 494 1371 2.050 10000.000 0.000 -0.516
54 162.00 1500.01 491 1527 2.050 10000.000 0.000 -0.516
55 165.00 1500.01 464 1454 2.050 10000.000 0.000 -0.516
56 168.00 1500.01 493 1567 2.050 10000.000 0.000 -0.516
57 171.00 1500.01 465 1476 2.050 10000.000 0.000 -0.516
58 174.00 1500.01 450 1606 2.050 10000.000 0.000 -0.516
59 177.00 1500.01 480 1554 2.050 10000.000 0.000 -0.516
60 180.00 1500.01 443 1518 2.050 10000.000 0.000 -0.516
61 183.00 1500.01 427 1425 2.050 10000.000 0.000 -0.516
62 186.00 1500.01 457 1494 2.050 10000.000 0.000 -0.516
63 189.00 1500.01 387 1412 2.050 10000.000 0.000 -0.516
64 192.00 1500.01 447 1468 2.050 10000.000 0.000 -0.516
65 195.00 1500.01 449 1425 2.050 10000.000 0.000 -0.516
66 198.00 1500.01 486 1505 2.050 10000.000 0.000 -0.516
67 201.00 1500.01 435 1561 2.050 10000.000 0.000 -0.516
68 204.00 1500.01 425 1432 2.050 10000.000 0.000 -0.516
69 207.00 1500.01 432 1511 2.050 10000.000 0.000 -0.516
70 210.00 1500.01 455 1480 2.050 10000.000 0.000 -0.516
71 213.00 1500.01 451 1503 2.050 10000.000 0.000 -0.516
72 216.00 1500.01 467 1513 2.050 10000.000 0.000 -0.516
73 219.00 1500.01 467 1522 2.050 10000.000 0.000 -0.516
74 222.00 1500.01 467 1588 2.050 10000.000 0.000 -0.516
75 225.00 1500.01 451 1491 2.050 10000.000 0.000 -0.516
76 228.00 1500.01 484 1461 2.050 10000.000 0.000 -0.516
77 231.00 1500.01 485 1396 2.050 10000.000 0.000 -0.516
78 234.00 1500.01 423 1428 2.050 10000.000 0.000 -0.516
79 237.00 1500.01 471 1335 2.050 10000.000 0.000 -0.516
80 240.00 1500.01 451 1368 2.050 10000.000 0.000 -0.516
81 243.00 1500.01 453 1339 2.050 10000.000 0.000 -0.516
82 246.00 1500.01 479 1329 2.050 10000.000 0.000 -0.516
83 249.00 1500.01 432 1325 2.050 10000.000 0.000 -0.516
84 252.00 1500.01 462 1375 2.050 10000.000 0.000 -0.516
85 255.00 1500.01 472 1345 2.050 10000.000 0.000 -0.516
86 258.00 1500.01 488 1337 2.050 10000.000 0.000 -0.516
87 261.00 1500.01 515 1427 2.050 10000.000 0.000 -0.516
88 264.00 1500.01 507 1446 2.050 10000.000 0.000 -0.516
89 267.00 1500.01 501 1412 2.050 10000.000 0.000 -0.516
90 270.00 1500.01 478 1545 2.050 10000.000 0.000 -0.516
91 273.00 1500.01 473 1472 2.050 10000.000 0.000 -0.516
92 276.00 1500.01 486 1578 2.050 10000.000 0.000 -0.516
93 279.00 1500.01 465 1492 2.050 10000.000 0.000 -0.516
94 282.00 1500.01 466 1490 2.050 10000.000 0.000 -0.516
95 285.00 1500.01 445 1523 2.050 10000.000 0.000 -0.516
96 288.00 1500.01 429 1418 2.050 10000.000 0.000 -0.516
97 291.00 1500.01 483 1446 2.050 10000.000 0.000 -0.516
98 294.00 1500.01 460 1478 2.050 10000.000 0.000 -0.516
99 297.00 1500.01 437 1381 2.050 10000.000 0.000 -0.516
100 300.00 1500.01 409 1493 2.050 10000.000 0.000 -0.516
101 303.00 1500.01 421 1469 2.050 10000.000 0.000 -0.516
102 306.00 1500.01 453 1541 2.050 10000.000 0.000 -0.516
103 309.00 1500.01 437 1582 2.050 10000.000 0.000 -0.516
104 312.00 1500.01 463 1468 2.050 10000.000 0.000 -0.516
105 315.00 1500.01 460 1575 2.050 10000.000 0.000 -0.516
106 318.00 1500.01 487 1538 2.050 10000.000 0.000 -0.516
107 321.00 1500.01 464 1557 2.050 10000.000 0.000 -0.516
108 324.00 1500.01 493 1454 2.050 10000.000 0.000 -0.516
109 327.00 1500.01 439 1473 2.050 10000.000 0.000 -0.516
110 330.00 1500.01 473 1461 2.050 10000.000 0.000 -0.516
111 333.00 1500.01 468 1422 2.050 10000.000 0.000 -0.516
112 336.00 1500.01 439 1401 2.050 10000.000 0.000 -0.516
113 339.00 1500.01 450 1325 2.050 10000.000 0.000 -0.516
114 342.00 1500.01 410 1310 2.050 10000.000 0.000 -0.516
115 345.00 1500.01 447 1299 2.050 10000.000 0.000 -0.516
116 348.00 1500.01 493 1334 2.050 10000.000 0.000 -0.516
117 351.00 1500.01 462 1326 2.050 10000.000 0.000 -0.516
118 354.00 1500.01 468 1322 2.050 10000.000 0.000 -0.516
119 357.00 1500.01 481 1378 2.050 10000.000 0.000 -0.516
120 360.00 1500.01 485 1407 2.050 10000.000 0.000 -0.516
121 363.00 1500.01 493 1411 2.050 10000.000 0.000 -0.516
122 366.00 1500.01 474 1473 2.050 10000.000 0.000 -0.516
123 369.00 1500.01 517 1490 2.050 10000.000 0.000 -0.516
124 372.00 1500.01 540 1496 2.050 10000.000 0.000 -0.516
125 375.00 1500.01 483 1445 2.050 10000.000 0.000 -0.516
126 378.00 1500.01 480 1521 2.050 10000.000 0.000 -0.516
127 381.00 1500.01 480 1440 2.050 10000.000 0.000 -0.516
128 384.00 1500.01 483 1488 2.050 10000.000 0.000 -0.516
129 387.00 1500.01 452 1521 2.050 10000.000 0.000 -0.516
130 390.00 1500.01 444 1435 2.050 10000.000 0.000 -0.516
131 393.00 1500.01 441 1380 2.050 10000.000 0.000 -0.516
132 396.00 1500.01 449 1426 2.050 10000.000 0.000 -0.516
133 399.00 1500.01 414 1407 2.050 10000.000 0.000 -0.516
134 402.00 1500.01 439 1550 2.050 10000.000 0.000 -0.516
