# BinNR microsec tot-time (s)  O-Beam AUX Ampl(V) f(Hz) phase(deg) chi(pos)
0 0.00 1500.00 236 565 2.050 10000.000 0.000 0.000
1 3.00 1500.00 412 1191 2.050 10000.000 0.000 0.000
2 6.00 1500.00 394 1084 2.050 10000.000 0.000 0.000
3 9.00 1500.00 383 950 2.050 10000.000 0.000 0.000
4 12.00 1500.00 357 878 2.050 10000.000 0.000 0.000
5 15.00 1500.00 366 853 2.050 10000.000 0.000 0.000
6 18.00 1500.00 374 757 2.050 10000.000 0.000 0.000
7 21.00 1500.00 349 653 2.050 10000.000 0.000 0.000
8 24.00 1500.00 314 618 2.050 10000.000 0.000 0.000
9 27.00 1500.00 287 494 2.050 10000.000 0.000 0.000
10 30.00 1500.00 271 451 2.050 10000.000 0.000 0.000
11 33.00 1500.00 288 436 2.050 10000.000 0.000 0.000
12 36.00 1500.00 282 438 2.050 10000.000 0.000 0.000
13 39.00 1500.00 254 384 2.050 10000.000 0.000 0.000
14 42.00 1500.00 256 433 2.050 10000.000 0.000 0.000
15 45.00 1500.00 231 414 2.050 10000.000 0.000 0.000
16 48.00 1500.00 215 413 2.050 10000.000 0.000 0.000
17 51.00 1500.00 241 428 2.050 10000.000 0.000 0.000
18 54.00 1500.00 247 424 2.050 10000.000 0.000 0.000
19 57.00 1500.00 268 458 2.050 10000.000 0.000 0.000
20 60.00 1500.00 300 523 2.050 10000.000 0.000 0.000
21 63.00 1500.00 315 524 2.050 10000.000 0.000 0.000
22 66.00 1500.00 290 607 2.050 10000.000 0.000 0.000
23 69.00 1500.00 335 714 2.050 10000.000 0.000 0.000
24 72.00 1500.00 347 784 2.050 10000.000 0.000 0.000
25 75.00 1500.00 393 806 2.050 10000.000 0.000 0.000
26 78.00 1500.00 418 968 2.050 10000.000 0.000 0.000
27 81.00 1500.00 451 1064 2.050 10000.000 0.000 0.000
28 84.00 1500.00 427 1076 2.050 10000.000 0.000 0.000
29 87.00 1500.00 459 1119 2.050 10000.000 0.000 0.000
30 90.00 1500.00 459 1217 2.050 10000.000 0.000 0.000
31 93.00 1500.00 442 1287 2.050 10000.000 0.000 0.000
32 96.00 1500.00 441 1254 2.050 10000.000 0.000 0.000
33 99.00 1500.00 446 1198 2.050 10000.000 0.000 0.000
34 102.00 1500.00 454 1143 2.050 10000.000 0.000 0.000
35 105.00 1500.00 401 1206 2.050 10000.000 0.000 0.000
36 108.00 1500.00 408 1128 2.050 10000.000 0.000 0.000
37 111.00 1500.00 428 1037 2.050 10000.000 0.000 0.000
38 114.00 1500.00 385 979 2.050 10000.000 0.000 0.000
39 117.00 1500.00 379 952 2.050 10000.000 0.000 0.000
40 120.00 1500.00 331 818 2.050 10000.000 0.000 0.000
41 123.00 1500.00 317 730 2.050 10000.000 0.000 0.000
42 126.00 1500.00 311 653 2.050 10000.000 0.000 0.000
43 129.00 1500.00 274 557 2.050 10000.000 0.000 0.000
44 132.00 1500.00 269 535 2.050 10000.000 0.000 0.000
45 135.00 1500.00 261 416 2.050 10000.000 0.000 0.000
46 138.00 1500.00 248 374 2.050 10000.000 0.000 0.000
47 141.00 1500.00 240 365 2.050 10000.000 0.000 0.000
48 144.00 1500.00 224 349 2.050 10000.000 0.000 0.000
49 147.00 1500.00 258 364 2.050 10000.000 0.000 0.000
50 150.00 1500.00 254 403 2.050 10000.000 0.000 0.000
51 153.00 1500.00 250 374 2.050 10000.000 0.000 0.000
52 156.00 1500.00 245 412 2.050 10000.000 0.000 0.000
53 159.00 1500.00 296 450 2.050 10000.000 0.000 0.000
54 162.00 1500.00 312 510 2.050 10000.000 0.000 0.000
55 165.00 1500.00 317 564 2.050 10000.000 0.000 0.000
56 168.00 1500.00 356 643 2.050 10000.000 0.000 0.000
57 171.00 1500.00 366 753 2.050 10000.000 0.000 0.000
58 174.00 1500.00 346 845 2.050 10000.000 0.000 0.000
59 177.00 1500.00 389 936 2.050 10000.000 0.000 0.000
60 180.00 1500.00 448 1018 2.050 10000.000 0.000 0.000
61 183.00 1500.00 391 1134 2.050 10000.000 0.000 0.000
62 186.00 1500.00 433 1110 2.050 10000.000 0.000 0.000
63 189.00 1500.00 399 1192 2.050 10000.000 0.000 0.000
64 192.00 1500.00 456 1169 2.050 10000.000 0.000 0.000
65 195.00 1500.00 406 1183 2.050 10000.000 0.000 0.000
66 198.00 1500.00 410 1131 2.050 10000.000 0.000 0.000
67 201.00 1500.00 442 1149 2.050 10000.000 0.000 0.000
68 204.00 1500.00 399 1212 2.050 10000.000 0.000 0.000
69 207.00 1500.00 445 1113 2.050 10000.000 0.000 0.000
70 210.00 1500.00 391 1123 2.050 10000.000 0.000 0.000
71 213.00 1500.00 389 986 2.050 10000.000 0.000 0.000
72 216.00 1500.00 391 970 2.050 10000.000 0.000 0.000
73 219.00 1500.00 350 845 2.050 10000.000 0.000 0.000
74 222.00 1500.00 332 781 2.050 10000.000 0.000 0.000
75 225.00 1500.00 336 638 2.050 10000.000 0.000 0.000
76 228.00 1500.00 315 554 2.050 10000.000 0.000 0.000
77 231.00 1500.00 301 522 2.050 10000.000 0.000 0.000
78 234.00 1500.00 245 463 2.050 10000.000 0.000 0.000
79 237.00 1500.00 257 416 2.050 10000.000 0.000 0.000
80 240.00 1500.00 248 368 2.050 10000.000 0.000 0.000
81 243.00 1500.00 240 380 2.050 10000.000 0.000 0.000
82 246.00 1500.00 295 345 2.050 10000.000 0.000 0.000
83 249.00 1500.00 279 382 2.050 10000.000 0.000 0.000
84 252.00 1500.00 241 362 2.050 10000.000 0.000 0.000
85 255.00 1500.00 261 387 2.050 10000.000 0.000 0.000
86 258.00 1500.00 264 464 2.050 10000.000 0.000 0.000
87 261.00 1500.00 314 500 2.050 10000.000 0.000 0.000
88 264.00 1500.00 367 544 2.050 10000.000 0.000 0.000
89 267.00 1500.00 331 609 2.050 10000.000 0.000 0.000
90 270.00 1500.00 383 772 2.050 10000.000 0.000 0.000
91 273.00 1500.00 375 796 2.050 10000.000 0.000 0.000
92 276.00 1500.00 400 930 2.050 10000.000 0.000 0.000
93 279.00 1500.00 403 953 2.050 10000.000 0.000 0.000
94 282.00 1500.00 404 1103 2.050 10000.000 0.000 0.000
95 285.00 1500.00 464 1114 2.050 10000.000 0.000 0.000
96 288.00 1500.00 429 1159 2.050 10000.000 0.000 0.000
97 291.00 1500.00 452 1174 2.050 10000.000 0.000 0.000
98 294.00 1500.00 475 1241 2.050 10000.000 0.000 0.000
99 297.00 1500.00 463 1205 2.050 10000.000 0.000 0.000
100 300.00 1500.00 409 1192 2.050 10000.000 0.000 0.000
101 303.00 1500.00 420 1179 2.050 10000.000 0.000 0.000
102 306.00 1500.00 408 1127 2.050 10000.000 0.000 0.000
103 309.00 1500.00 416 1062 2.050 10000.000 0.000 0.000
104 312.00 1500.00 390 1049 2.050 10000.000 0.000 0.000
105 315.00 1500.00 324 935 2.050 10000.000 0.000 0.000
106 318.00 1500.00 338 851 2.050 10000.000 0.000 0.000
107 321.00 1500.00 308 758 2.050 10000.000 0.000 0.000
108 324.00 1500.00 281 699 2.050 10000.000 0.000 0.000
109 327.00 1500.00 284 627 2.050 10000.000 0.000 0.000
110 330.00 1500.00 281 576 2.050 10000.000 0.000 0.000
111 333.00 1500.00 255 482 2.050 10000.000 0.000 0.000
112 336.00 1500.00 279 431 2.050 10000.000 0.000 0.000
113 339.00 1500.00 286 374 2.050 10000.000 0.000 0.000
114 342.00 1500.00 285 371 2.050 10000.000 0.000 0.000
115 345.00 1500.00 242 381 2.050 10000.000 0.000 0.000
116 348.00 1500.00 264 346 2.050 10000.000 0.000 0.000
117 351.00 1500.00 267 373 2.050 10000.000 0.000 0.000
118 354.00 1500.00 285 409 2.050 10000.000 0.000 0.000
119 357.00 1500.00 274 410 2.050 10000.000 0.000 0.000
120 360.00 1500.00 277 489 2.050 10000.000 0.000 0.000
121 363.00 1500.00 275 479 2.050 10000.000 0.000 0.000
122 366.00 1500.00 337 656 2.050 10000.000 0.000 0.000
123 369.00 1500.00 322 672 2.050 10000.000 0.000 0.000
124 372.00 1500.00 346 755 2.050 10000.000 0.000 0.000
125 375.00 1500.00 385 835 2.050 10000.000 0.000 0.000
126 378.00 1500.00 359 982 2.050 10000.000 0.000 0.000
127 381.00 1500.00 411 1042 2.050 10000.000 0.000 0.000
128 384.00 1500.00 403 1057 2.050 10000.000 0.000 0.000
129 387.00 1500.00 415 1116 2.050 10000.000 0.000 0.000
130 390.00 1500.00 454 1222 2.050 10000.000 0.000 0.000
131 393.00 1500.00 446 1205 2.050 10000.000 0.000 0.000
132 396.00 1500.00 451 1224 2.050 10000.000 0.000 0.000
133 399.00 1500.00 442 1234 2.050 10000.000 0.000 0.000
134 402.00 1500.00 430 1216 2.050 10000.000 0.000 0.000
