# BinNR microsec tot-time (s)  O-Beam AUX Ampl(V) f(Hz) phase(deg) chi(pos)
0 0.00 1500.00 89 245 2.050 10000.000 0.000 -1.011
1 3.00 1500.00 209 567 2.050 10000.000 0.000 -1.011
2 6.00 1500.00 247 622 2.050 10000.000 0.000 -1.011
3 9.00 1500.00 234 674 2.050 10000.000 0.000 -1.011
4 12.00 1500.00 242 752 2.050 10000.000 0.000 -1.011
5 15.00 1500.00 234 841 2.050 10000.000 0.000 -1.011
6 18.00 1500.00 285 895 2.050 10000.000 0.000 -1.011
7 21.00 1500.00 300 1020 2.050 10000.000 0.000 -1.011
8 24.00 1500.00 306 1046 2.050 10000.000 0.000 -1.011
9 27.00 1500.00 311 1153 2.050 10000.000 0.000 -1.011
10 30.00 1500.00 332 1219 2.050 10000.000 0.000 -1.011
11 33.00 1500.00 341 1211 2.050 10000.000 0.000 -1.011
12 36.00 1500.00 378 1275 2.050 10000.000 0.000 -1.011
13 39.00 1500.00 341 1263 2.050 10000.000 0.000 -1.011
14 42.00 1500.00 372 1247 2.050 10000.000 0.000 -1.011
15 45.00 1500.00 352 1274 2.050 10000.000 0.000 -1.011
16 48.00 1500.00 367 1266 2.050 10000.000 0.000 -1.011
17 51.00 1500.00 392 1241 2.050 10000.000 0.000 -1.011
18 54.00 1500.00 330 1252 2.050 10000.000 0.000 -1.011
19 57.00 1500.00 328 1237 2.050 10000.000 0.000 -1.011
20 60.00 1500.00 330 1141 2.050 10000.000 0.000 -1.011
21 63.00 1500.00 320 1120 2.050 10000.000 0.000 -1.011
22 66.00 1500.00 290 1052 2.050 10000.000 0.000 -1.011
23 69.00 1500.00 239 1008 2.050 10000.000 0.000 -1.011
24 72.00 1500.00 243 921 2.050 10000.000 0.000 -1.011
25 75.00 1500.00 250 858 2.050 10000.000 0.000 -1.011
26 78.00 1500.00 252 791 2.050 10000.000 0.000 -1.011
27 81.00 1500.00 218 674 2.050 10000.000 0.000 -1.011
28 84.00 1500.00 210 575 2.050 10000.000 0.000 -1.011
29 87.00 1500.00 187 520 2.050 10000.000 0.000 -1.011
30 90.00 1500.00 156 537 2.050 10000.000 0.000 -1.011
31 93.00 1500.00 186 491 2.050 10000.000 0.000 -1.011
32 96.00 1500.00 209 526 2.050 10000.000 0.000 -1.011
33 99.00 1500.00 193 463 2.050 10000.000 0.000 -1.011
34 102.00 1500.00 192 466 2.050 10000.000 0.000 -1.011
35 105.00 1500.00 242 533 2.050 10000.000 0.000 -1.011
36 108.00 1500.00 213 591 2.050 10000.000 0.000 -1.011
37 111.00 1500.00 220 660 2.050 10000.000 0.000 -1.011
38 114.00 1500.00 249 694 2.050 10000.000 0.000 -1.011
39 117.00 1500.00 268 780 2.050 10000.000 0.000 -1.011
40 120.00 1500.00 280 842 2.050 10000.000 0.000 -1.011
41 123.00 1500.00 293 996 2.050 10000.000 0.000 -1.011
42 126.00 1500.00 319 1089 2.050 10000.000 0.000 -1.011
43 129.00 1500.00 322 1160 2.050 10000.000 0.000 -1.011
44 132.00 1500.00 346 1210 2.050 10000.000 0.000 -1.011
45 135.00 1500.00 357 1186 2.050 10000.000 0.000 -1.011
46 138.00 1500.00 346 1270 2.050 10000.000 0.000 -1.011
47 141.00 1500.00 355 1300 2.050 10000.000 0.000 -1.011
48 144.00 1500.00 385 1340 2.050 10000.000 0.000 -1.011
49 147.00 1500.00 383 1371 2.050 10000.000 0.000 -1.011
50 150.00 1500.00 370 1332 2.050 10000.000 0.000 -1.011
51 153.00 1500.00 384 1274 2.050 10000.000 0.000 -1.011
52 156.00 1500.00 375 1264 2.050 10000.000 0.000 -1.011
53 159.00 1500.00 355 1246 2.050 10000.000 0.000 -1.011
54 162.00 1500.00 311 1166 2.050 10000.000 0.000 -1.011
55 165.00 1500.00 305 1087 2.050 10000.000 0.000 -1.011
56 168.00 1500.00 288 1028 2.050 10000.000 0.000 -1.011
57 171.00 1500.00 293 903 2.050 10000.000 0.000 -1.011
58 174.00 1500.00 251 899 2.050 10000.000 0.000 -1.011
59 177.00 1500.00 238 754 2.050 10000.000 0.000 -1.011
60 180.00 1500.00 216 698 2.050 10000.000 0.000 -1.011
61 183.00 1500.00 205 608 2.050 10000.000 0.000 -1.011
62 186.00 1500.00 204 590 2.050 10000.000 0.000 -1.011
63 189.00 1500.00 204 502 2.050 10000.000 0.000 -1.011
64 192.00 1500.00 189 506 2.050 10000.000 0.000 -1.011
65 195.00 1500.00 189 455 2.050 10000.000 0.000 -1.011
66 198.00 1500.00 235 491 2.050 10000.000 0.000 -1.011
67 201.00 1500.00 187 511 2.050 10000.000 0.000 -1.011
68 204.00 1500.00 196 523 2.050 10000.000 0.000 -1.011
69 207.00 1500.00 221 568 2.050 10000.000 0.000 -1.011
70 210.00 1500.00 236 599 2.050 10000.000 0.000 -1.011
71 213.00 1500.00 251 698 2.050 10000.000 0.000 -1.011
72 216.00 1500.00 274 761 2.050 10000.000 0.000 -1.011
73 219.00 1500.00 280 891 2.050 10000.000 0.000 -1.011
74 222.00 1500.00 276 961 2.050 10000.000 0.000 -1.011
75 225.00 1500.00 327 1042 2.050 10000.000 0.000 -1.011
76 228.00 1500.00 312 1177 2.050 10000.000 0.000 -1.011
77 231.00 1500.00 363 1192 2.050 10000.000 0.000 -1.011
78 234.00 1500.00 387 1302 2.050 10000.000 0.000 -1.011
79 237.00 1500.00 359 1244 2.050 10000.000 0.000 -1.011
80 240.00 1500.00 355 1327 2.050 10000.000 0.000 -1.011
81 243.00 1500.00 326 1264 2.050 10000.000 0.000 -1.011
82 246.00 1500.00 348 1343 2.050 10000.000 0.000 -1.011
83 249.00 1500.00 360 1350 2.050 10000.000 0.000 -1.011
84 252.00 1500.00 372 1312 2.050 10000.000 0.000 -1.011
85 255.00 1500.00 321 1322 2.050 10000.000 0.000 -1.011
86 258.00 1500.00 328 1306 2.050 10000.000 0.000 -1.011
87 261.00 1500.00 260 1133 2.050 10000.000 0.000 -1.011
88 264.00 1500.00 351 1151 2.050 10000.000 0.000 -1.011
89 267.00 1500.00 259 1030 2.050 10000.000 0.000 -1.011
90 270.00 1500.00 273 934 2.050 10000.000 0.000 -1.011
91 273.00 1500.00 258 817 2.050 10000.000 0.000 -1.011
92 276.00 1500.00 215 816 2.050 10000.000 0.000 -1.011
93 279.00 1500.00 210 761 2.050 10000.000 0.000 -1.011
94 282.00 1500.00 212 623 2.050 10000.000 0.000 -1.011
95 285.00 1500.00 191 537 2.050 10000.000 0.000 -1.011
96 288.00 1500.00 191 544 2.050 10000.000 0.000 -1.011
97 291.00 1500.00 220 467 2.050 10000.000 0.000 -1.011
98 294.00 1500.00 184 527 2.050 10000.000 0.000 -1.011
99 297.00 1500.00 182 469 2.050 10000.000 0.000 -1.011
100 300.00 1500.00 189 500 2.050 10000.000 0.000 -1.011
101 303.00 1500.00 191 490 2.050 10000.000 0.000 -1.011
102 306.00 1500.00 225 603 2.050 10000.000 0.000 -1.011
103 309.00 1500.00 243 611 2.050 10000.000 0.000 -1.011
104 312.00 1500.00 243 697 2.050 10000.000 0.000 -1.011
105 315.00 1500.00 259 707 2.050 10000.000 0.000 -1.011
106 318.00 1500.00 289 892 2.050 10000.000 0.000 -1.011
107 321.00 1500.00 298 898 2.050 10000.000 0.000 -1.011
108 324.00 1500.00 304 1048 2.050 10000.000 0.000 -1.011
109 327.00 1500.00 314 1094 2.050 10000.000 0.000 -1.011
110 330.00 1500.00 340 1173 2.050 10000.000 0.000 -1.011
111 333.00 1500.00 320 1236 2.050 10000.000 0.000 -1.011
112 336.00 1500.00 312 1348 2.050 10000.000 0.000 -1.011
113 339.00 1500.00 346 1334 2.050 10000.000 0.000 -1.011
114 342.00 1500.00 372 1278 2.050 10000.000 0.000 -1.011
115 345.00 1500.00 372 1240 2.050 10000.000 0.000 -1.011
116 348.00 1500.00 369 1361 2.050 10000.000 0.000 -1.011
117 351.00 1500.00 381 1294 2.050 10000.000 0.000 -1.011
118 354.00 1500.00 360 1315 2.050 10000.000 0.000 -1.011
119 357.00 1500.00 342 1235 2.050 10000.000 0.000 -1.011
120 360.00 1500.00 320 1323 2.050 10000.000 0.000 -1.011
121 363.00 1500.00 334 1126 2.050 10000.000 0.000 -1.011
122 366.00 1500.00 308 1041 2.050 10000.000 0.000 -1.011
123 369.00 1500.00 304 940 2.050 10000.000 0.000 -1.011
124 372.00 1500.00 277 957 2.050 10000.000 0.000 -1.011
125 375.00 1500.00 240 838 2.050 10000.000 0.000 -1.011
126 378.00 1500.00 231 701 2.050 10000.000 0.000 -1.011
127 381.00 1500.00 232 633 2.050 10000.000 0.000 -1.011
128 384.00 1500.00 227 603 2.050 10000.000 0.000 -1.011
129 387.00 1500.00 229 573 2.050 10000.000 0.000 -1.011
130 390.00 1500.00 212 518 2.050 10000.000 0.000 -1.011
131 393.00 1500.00 198 488 2.050 10000.000 0.000 -1.011
132 396.00 1500.00 190 468 2.050 10000.000 0.000 -1.011
133 399.00 1500.00 189 454 2.050 10000.000 0.000 -1.011
134 402.00 1500.00 200 532 2.050 10000.000 0.000 -1.011
