# BinNR microsec tot-time (s)  O-Beam AUX Ampl(V) f(Hz) phase(deg) chi(pos)
0 0.00 1500.01 70 164 2.050 10000.000 0.000 0.835
1 3.00 1500.01 173 311 2.050 10000.000 0.000 0.835
2 6.00 1500.01 159 337 2.050 10000.000 0.000 0.835
3 9.00 1500.01 188 432 2.050 10000.000 0.000 0.835
4 12.00 1500.01 188 516 2.050 10000.000 0.000 0.835
5 15.00 1500.01 190 554 2.050 10000.000 0.000 0.835
6 18.00 1500.01 215 682 2.050 10000.000 0.000 0.835
7 21.00 1500.01 236 723 2.050 10000.000 0.000 0.835
8 24.00 1500.01 232 837 2.050 10000.000 0.000 0.835
9 27.00 1500.01 280 869 2.050 10000.000 0.000 0.835
10 30.00 1500.01 270 933 2.050 10000.000 0.000 0.835
11 33.00 1500.01 282 944 2.050 10000.000 0.000 0.835
12 36.00 1500.01 303 1037 2.050 10000.000 0.000 0.835
13 39.00 1500.01 308 976 2.050 10000.000 0.000 0.835
14 42.00 1500.01 307 978 2.050 10000.000 0.000 0.835
15 45.00 1500.01 300 954 2.050 10000.000 0.000 0.835
16 48.00 1500.01 322 973 2.050 10000.000 0.000 0.835
17 51.00 1500.01 295 977 2.050 10000.000 0.000 0.835
18 54.00 1500.01 292 1000 2.050 10000.000 0.000 0.835
19 57.00 1500.01 250 927 2.050 10000.000 0.000 0.835
20 60.00 1500.01 249 928 2.050 10000.000 0.000 0.835
21 63.00 1500.01 230 867 2.050 10000.000 0.000 0.835
22 66.00 1500.01 221 782 2.050 10000.000 0.000 0.835
23 69.00 1500.01 207 620 2.050 10000.000 0.000 0.835
24 72.00 1500.01 217 622 2.050 10000.000 0.000 0.835
25 75.00 1500.01 187 501 2.050 10000.000 0.000 0.835
26 78.00 1500.01 152 442 2.050 10000.000 0.000 0.835
27 81.00 1500.01 171 377 2.050 10000.000 0.000 0.835
28 84.00 1500.01 138 352 2.050 10000.000 0.000 0.835
29 87.00 1500.01 157 338 2.050 10000.000 0.000 0.835
30 90.00 1500.01 133 282 2.050 10000.000 0.000 0.835
31 93.00 1500.01 134 270 2.050 10000.000 0.000 0.835
32 96.00 1500.01 168 257 2.050 10000.000 0.000 0.835
33 99.00 1500.01 154 240 2.050 10000.000 0.000 0.835
34 102.00 1500.01 154 271 2.050 10000.000 0.000 0.835
35 105.00 1500.01 156 289 2.050 10000.000 0.000 0.835
36 108.00 1500.01 189 355 2.050 10000.000 0.000 0.835
37 111.00 1500.01 172 352 2.050 10000.000 0.000 0.835
38 114.00 1500.01 212 378 2.050 10000.000 0.000 0.835
39 117.00 1500.01 224 480 2.050 10000.000 0.000 0.835
40 120.00 1500.01 227 609 2.050 10000.000 0.000 0.835
41 123.00 1500.01 224 617 2.050 10000.000 0.000 0.835
42 126.00 1500.01 259 716 2.050 10000.000 0.000 0.835
43 129.00 1500.01 272 752 2.050 10000.000 0.000 0.835
44 132.00 1500.01 271 974 2.050 10000.000 0.000 0.835
45 135.00 1500.01 296 931 2.050 10000.000 0.000 0.835
46 138.00 1500.01 286 1037 2.050 10000.000 0.000 0.835
47 141.00 1500.01 316 1011 2.050 10000.000 0.000 0.835
48 144.00 1500.01 313 1155 2.050 10000.000 0.000 0.835
49 147.00 1500.01 290 1025 2.050 10000.000 0.000 0.835
50 150.00 1500.01 303 1073 2.050 10000.000 0.000 0.835
51 153.00 1500.01 275 974 2.050 10000.000 0.000 0.835
52 156.00 1500.01 286 991 2.050 10000.000 0.000 0.835
53 159.00 1500.01 267 921 2.050 10000.000 0.000 0.835
54 162.00 1500.01 259 923 2.050 10000.000 0.000 0.835
55 165.00 1500.01 245 780 2.050 10000.000 0.000 0.835
56 168.00 1500.01 218 725 2.050 10000.000 0.000 0.835
57 171.00 1500.01 168 624 2.050 10000.000 0.000 0.835
58 174.00 1500.01 174 525 2.050 10000.000 0.000 0.835
59 177.00 1500.01 149 486 2.050 10000.000 0.000 0.835
60 180.00 1500.01 158 403 2.050 10000.000 0.000 0.835
61 183.00 1500.01 159 359 2.050 10000.000 0.000 0.835
62 186.00 1500.01 156 329 2.050 10000.000 0.000 0.835
63 189.00 1500.01 150 270 2.050 10000.000 0.000 0.835
64 192.00 1500.01 170 277 2.050 10000.000 0.000 0.835
65 195.00 1500.01 144 250 2.050 10000.000 0.000 0.835
66 198.00 1500.01 160 257 2.050 10000.000 0.000 0.835
67 201.00 1500.01 185 299 2.050 10000.000 0.000 0.835
68 204.00 1500.01 159 286 2.050 10000.000 0.000 0.835
69 207.00 1500.01 174 317 2.050 10000.000 0.000 0.835
70 210.00 1500.01 166 339 2.050 10000.000 0.000 0.835
71 213.00 1500.01 202 432 2.050 10000.000 0.000 0.835
72 216.00 1500.01 209 514 2.050 10000.000 0.000 0.835
73 219.00 1500.01 190 556 2.050 10000.000 0.000 0.835
74 222.00 1500.01 256 632 2.050 10000.000 0.000 0.835
75 225.00 1500.01 268 721 2.050 10000.000 0.000 0.835
76 228.00 1500.01 272 797 2.050 10000.000 0.000 0.835
77 231.00 1500.01 289 856 2.050 10000.000 0.000 0.835
78 234.00 1500.01 279 928 2.050 10000.000 0.000 0.835
79 237.00 1500.01 284 1027 2.050 10000.000 0.000 0.835
80 240.00 1500.01 301 1013 2.050 10000.000 0.000 0.835
81 243.00 1500.01 296 1006 2.050 10000.000 0.000 0.835
82 246.00 1500.01 310 1077 2.050 10000.000 0.000 0.835
83 249.00 1500.01 319 1051 2.050 10000.000 0.000 0.835
84 252.00 1500.01 288 1069 2.050 10000.000 0.000 0.835
85 255.00 1500.01 284 1014 2.050 10000.000 0.000 0.835
86 258.00 1500.01 268 961 2.050 10000.000 0.000 0.835
87 261.00 1500.01 252 868 2.050 10000.000 0.000 0.835
88 264.00 1500.01 247 814 2.050 10000.000 0.000 0.835
89 267.00 1500.01 232 754 2.050 10000.000 0.000 0.835
90 270.00 1500.01 178 666 2.050 10000.000 0.000 0.835
91 273.00 1500.01 205 557 2.050 10000.000 0.000 0.835
92 276.00 1500.01 210 499 2.050 10000.000 0.000 0.835
93 279.00 1500.01 155 442 2.050 10000.000 0.000 0.835
94 282.00 1500.01 157 359 2.050 10000.000 0.000 0.835
95 285.00 1500.01 152 330 2.050 10000.000 0.000 0.835
96 288.00 1500.01 151 296 2.050 10000.000 0.000 0.835
97 291.00 1500.01 177 324 2.050 10000.000 0.000 0.835
98 294.00 1500.01 156 321 2.050 10000.000 0.000 0.835
99 297.00 1500.01 163 263 2.050 10000.000 0.000 0.835
100 300.00 1500.01 163 243 2.050 10000.000 0.000 0.835
101 303.00 1500.01 168 275 2.050 10000.000 0.000 0.835
102 306.00 1500.01 167 286 2.050 10000.000 0.000 0.835
103 309.00 1500.01 181 365 2.050 10000.000 0.000 0.835
104 312.00 1500.01 166 409 2.050 10000.000 0.000 0.835
105 315.00 1500.01 212 431 2.050 10000.000 0.000 0.835
106 318.00 1500.01 191 483 2.050 10000.000 0.000 0.835
107 321.00 1500.01 235 589 2.050 10000.000 0.000 0.835
108 324.00 1500.01 231 698 2.050 10000.000 0.000 0.835
109 327.00 1500.01 234 770 2.050 10000.000 0.000 0.835
110 330.00 1500.01 255 851 2.050 10000.000 0.000 0.835
111 333.00 1500.01 277 958 2.050 10000.000 0.000 0.835
112 336.00 1500.01 282 996 2.050 10000.000 0.000 0.835
113 339.00 1500.01 294 1051 2.050 10000.000 0.000 0.835
114 342.00 1500.01 257 1111 2.050 10000.000 0.000 0.835
115 345.00 1500.01 258 1108 2.050 10000.000 0.000 0.835
116 348.00 1500.01 272 1110 2.050 10000.000 0.000 0.835
117 351.00 1500.01 307 999 2.050 10000.000 0.000 0.835
118 354.00 1500.01 298 1020 2.050 10000.000 0.000 0.835
119 357.00 1500.01 293 933 2.050 10000.000 0.000 0.835
120 360.00 1500.01 274 938 2.050 10000.000 0.000 0.835
121 363.00 1500.01 251 819 2.050 10000.000 0.000 0.835
122 366.00 1500.01 231 810 2.050 10000.000 0.000 0.835
123 369.00 1500.01 224 632 2.050 10000.000 0.000 0.835
124 372.00 1500.01 216 638 2.050 10000.000 0.000 0.835
125 375.00 1500.01 187 508 2.050 10000.000 0.000 0.835
126 378.00 1500.01 202 456 2.050 10000.000 0.000 0.835
127 381.00 1500.01 173 388 2.050 10000.000 0.000 0.835
128 384.00 1500.01 187 315 2.050 10000.000 0.000 0.835
129 387.00 1500.01 149 333 2.050 10000.000 0.000 0.835
130 390.00 1500.01 161 306 2.050 10000.000 0.000 0.835
131 393.00 1500.01 156 258 2.050 10000.000 0.000 0.835
132 396.00 1500.01 150 276 2.050 10000.000 0.000 0.835
133 399.00 1500.01 158 273 2.050 10000.000 0.000 0.835
134 402.00 1500.01 165 283 2.050 10000.000 0.000 0.835
