# BinNR microsec tot-time (s)  O-Beam AUX Ampl(V) f(Hz) phase(deg) chi(pos)
0 0.00 1500.00 190 402 2.050 10000.000 0.000 0.154
1 3.00 1500.00 368 730 2.050 10000.000 0.000 0.154
2 6.00 1500.00 306 748 2.050 10000.000 0.000 0.154
3 9.00 1500.00 328 595 2.050 10000.000 0.000 0.154
4 12.00 1500.00 315 552 2.050 10000.000 0.000 0.154
5 15.00 1500.00 274 534 2.050 10000.000 0.000 0.154
6 18.00 1500.00 270 426 2.050 10000.000 0.000 0.154
7 21.00 1500.00 207 369 2.050 10000.000 0.000 0.154
8 24.00 1500.00 238 318 2.050 10000.000 0.000 0.154
9 27.00 1500.00 238 272 2.050 10000.000 0.000 0.154
10 30.00 1500.00 207 242 2.050 10000.000 0.000 0.154
11 33.00 1500.00 200 213 2.050 10000.000 0.000 0.154
12 36.00 1500.00 204 235 2.050 10000.000 0.000 0.154
13 39.00 1500.00 190 224 2.050 10000.000 0.000 0.154
14 42.00 1500.00 175 221 2.050 10000.000 0.000 0.154
15 45.00 1500.00 203 245 2.050 10000.000 0.000 0.154
16 48.00 1500.00 183 235 2.050 10000.000 0.000 0.154
17 51.00 1500.00 183 207 2.050 10000.000 0.000 0.154
18 54.00 1500.00 191 272 2.050 10000.000 0.000 0.154
19 57.00 1500.00 184 264 2.050 10000.000 0.000 0.154
20 60.00 1500.00 204 247 2.050 10000.000 0.000 0.154
21 63.00 1500.00 209 265 2.050 10000.000 0.000 0.154
22 66.00 1500.00 245 330 2.050 10000.000 0.000 0.154
23 69.00 1500.00 243 391 2.050 10000.000 0.000 0.154
24 72.00 1500.00 308 481 2.050 10000.000 0.000 0.154
25 75.00 1500.00 313 557 2.050 10000.000 0.000 0.154
26 78.00 1500.00 321 586 2.050 10000.000 0.000 0.154
27 81.00 1500.00 327 625 2.050 10000.000 0.000 0.154
28 84.00 1500.00 333 732 2.050 10000.000 0.000 0.154
29 87.00 1500.00 335 813 2.050 10000.000 0.000 0.154
30 90.00 1500.00 386 842 2.050 10000.000 0.000 0.154
31 93.00 1500.00 319 863 2.050 10000.000 0.000 0.154
32 96.00 1500.00 382 897 2.050 10000.000 0.000 0.154
33 99.00 1500.00 320 916 2.050 10000.000 0.000 0.154
34 102.00 1500.00 351 807 2.050 10000.000 0.000 0.154
35 105.00 1500.00 366 795 2.050 10000.000 0.000 0.154
36 108.00 1500.00 330 735 2.050 10000.000 0.000 0.154
37 111.00 1500.00 331 699 2.050 10000.000 0.000 0.154
38 114.00 1500.00 322 603 2.050 10000.000 0.000 0.154
39 117.00 1500.00 283 495 2.050 10000.000 0.000 0.154
40 120.00 1500.00 253 465 2.050 10000.000 0.000 0.154
41 123.00 1500.00 222 372 2.050 10000.000 0.000 0.154
42 126.00 1500.00 238 344 2.050 10000.000 0.000 0.154
43 129.00 1500.00 232 257 2.050 10000.000 0.000 0.154
44 132.00 1500.00 219 236 2.050 10000.000 0.000 0.154
45 135.00 1500.00 226 226 2.050 10000.000 0.000 0.154
46 138.00 1500.00 181 216 2.050 10000.000 0.000 0.154
47 141.00 1500.00 186 228 2.050 10000.000 0.000 0.154
48 144.00 1500.00 193 199 2.050 10000.000 0.000 0.154
49 147.00 1500.00 208 200 2.050 10000.000 0.000 0.154
50 150.00 1500.00 174 207 2.050 10000.000 0.000 0.154
51 153.00 1500.00 189 232 2.050 10000.000 0.000 0.154
52 156.00 1500.00 200 221 2.050 10000.000 0.000 0.154
53 159.00 1500.00 232 255 2.050 10000.000 0.000 0.154
54 162.00 1500.00 203 303 2.050 10000.000 0.000 0.154
55 165.00 1500.00 215 304 2.050 10000.000 0.000 0.154
56 168.00 1500.00 254 359 2.050 10000.000 0.000 0.154
57 171.00 1500.00 271 404 2.050 10000.000 0.000 0.154
58 174.00 1500.00 320 522 2.050 10000.000 0.000 0.154
59 177.00 1500.00 310 593 2.050 10000.000 0.000 0.154
60 180.00 1500.00 331 681 2.050 10000.000 0.000 0.154
61 183.00 1500.00 343 730 2.050 10000.000 0.000 0.154
62 186.00 1500.00 365 823 2.050 10000.000 0.000 0.154
63 189.00 1500.00 348 821 2.050 10000.000 0.000 0.154
64 192.00 1500.00 359 898 2.050 10000.000 0.000 0.154
65 195.00 1500.00 335 920 2.050 10000.000 0.000 0.154
66 198.00 1500.00 380 890 2.050 10000.000 0.000 0.154
67 201.00 1500.00 336 866 2.050 10000.000 0.000 0.154
68 204.00 1500.00 353 871 2.050 10000.000 0.000 0.154
69 207.00 1500.00 306 824 2.050 10000.000 0.000 0.154
70 210.00 1500.00 334 739 2.050 10000.000 0.000 0.154
71 213.00 1500.00 299 671 2.050 10000.000 0.000 0.154
72 216.00 1500.00 282 535 2.050 10000.000 0.000 0.154
73 219.00 1500.00 217 485 2.050 10000.000 0.000 0.154
74 222.00 1500.00 272 453 2.050 10000.000 0.000 0.154
75 225.00 1500.00 233 352 2.050 10000.000 0.000 0.154
76 228.00 1500.00 216 292 2.050 10000.000 0.000 0.154
77 231.00 1500.00 223 264 2.050 10000.000 0.000 0.154
78 234.00 1500.00 206 233 2.050 10000.000 0.000 0.154
79 237.00 1500.00 195 210 2.050 10000.000 0.000 0.154
80 240.00 1500.00 194 215 2.050 10000.000 0.000 0.154
81 243.00 1500.00 161 215 2.050 10000.000 0.000 0.154
82 246.00 1500.00 181 198 2.050 10000.000 0.000 0.154
83 249.00 1500.00 167 217 2.050 10000.000 0.000 0.154
84 252.00 1500.00 195 193 2.050 10000.000 0.000 0.154
85 255.00 1500.00 197 210 2.050 10000.000 0.000 0.154
86 258.00 1500.00 190 232 2.050 10000.000 0.000 0.154
87 261.00 1500.00 225 260 2.050 10000.000 0.000 0.154
88 264.00 1500.00 215 280 2.050 10000.000 0.000 0.154
89 267.00 1500.00 260 368 2.050 10000.000 0.000 0.154
90 270.00 1500.00 243 425 2.050 10000.000 0.000 0.154
91 273.00 1500.00 304 484 2.050 10000.000 0.000 0.154
92 276.00 1500.00 324 559 2.050 10000.000 0.000 0.154
93 279.00 1500.00 317 593 2.050 10000.000 0.000 0.154
94 282.00 1500.00 294 724 2.050 10000.000 0.000 0.154
95 285.00 1500.00 324 786 2.050 10000.000 0.000 0.154
96 288.00 1500.00 357 788 2.050 10000.000 0.000 0.154
97 291.00 1500.00 367 851 2.050 10000.000 0.000 0.154
98 294.00 1500.00 367 918 2.050 10000.000 0.000 0.154
99 297.00 1500.00 371 896 2.050 10000.000 0.000 0.154
100 300.00 1500.00 335 886 2.050 10000.000 0.000 0.154
101 303.00 1500.00 340 831 2.050 10000.000 0.000 0.154
102 306.00 1500.00 369 833 2.050 10000.000 0.000 0.154
103 309.00 1500.00 337 719 2.050 10000.000 0.000 0.154
104 312.00 1500.00 307 670 2.050 10000.000 0.000 0.154
105 315.00 1500.00 277 604 2.050 10000.000 0.000 0.154
106 318.00 1500.00 269 555 2.050 10000.000 0.000 0.154
107 321.00 1500.00 246 440 2.050 10000.000 0.000 0.154
108 324.00 1500.00 226 368 2.050 10000.000 0.000 0.154
109 327.00 1500.00 244 334 2.050 10000.000 0.000 0.154
110 330.00 1500.00 233 278 2.050 10000.000 0.000 0.154
111 333.00 1500.00 181 237 2.050 10000.000 0.000 0.154
112 336.00 1500.00 190 252 2.050 10000.000 0.000 0.154
113 339.00 1500.00 168 231 2.050 10000.000 0.000 0.154
114 342.00 1500.00 180 236 2.050 10000.000 0.000 0.154
115 345.00 1500.00 168 195 2.050 10000.000 0.000 0.154
116 348.00 1500.00 171 195 2.050 10000.000 0.000 0.154
117 351.00 1500.00 174 229 2.050 10000.000 0.000 0.154
118 354.00 1500.00 196 213 2.050 10000.000 0.000 0.154
119 357.00 1500.00 184 225 2.050 10000.000 0.000 0.154
120 360.00 1500.00 191 237 2.050 10000.000 0.000 0.154
121 363.00 1500.00 204 247 2.050 10000.000 0.000 0.154
122 366.00 1500.00 232 347 2.050 10000.000 0.000 0.154
123 369.00 1500.00 249 378 2.050 10000.000 0.000 0.154
124 372.00 1500.00 241 450 2.050 10000.000 0.000 0.154
125 375.00 1500.00 272 508 2.050 10000.000 0.000 0.154
126 378.00 1500.00 296 609 2.050 10000.000 0.000 0.154
127 381.00 1500.00 319 666 2.050 10000.000 0.000 0.154
128 384.00 1500.00 359 746 2.050 10000.000 0.000 0.154
129 387.00 1500.00 349 745 2.050 10000.000 0.000 0.154
130 390.00 1500.00 338 810 2.050 10000.000 0.000 0.154
131 393.00 1500.00 364 902 2.050 10000.000 0.000 0.154
132 396.00 1500.00 329 904 2.050 10000.000 0.000 0.154
133 399.00 1500.00 348 826 2.050 10000.000 0.000 0.154
134 402.00 1500.00 345 845 2.050 10000.000 0.000 0.154
