# BinNR microsec tot-time (s)  O-Beam AUX Ampl(V) f(Hz) phase(deg) chi(pos)
0 0.00 1500.00 115 418 2.050 10000.000 0.000 -0.824
1 3.00 1500.00 269 889 2.050 10000.000 0.000 -0.824
2 6.00 1500.00 312 936 2.050 10000.000 0.000 -0.824
3 9.00 1500.00 281 1012 2.050 10000.000 0.000 -0.824
4 12.00 1500.00 309 1117 2.050 10000.000 0.000 -0.824
5 15.00 1500.00 319 1216 2.050 10000.000 0.000 -0.824
6 18.00 1500.00 345 1257 2.050 10000.000 0.000 -0.824
7 21.00 1500.00 348 1337 2.050 10000.000 0.000 -0.824
8 24.00 1500.00 360 1403 2.050 10000.000 0.000 -0.824
9 27.00 1500.00 409 1362 2.050 10000.000 0.000 -0.824
10 30.00 1500.00 444 1504 2.050 10000.000 0.000 -0.824
11 33.00 1500.00 412 1425 2.050 10000.000 0.000 -0.824
12 36.00 1500.00 459 1439 2.050 10000.000 0.000 -0.824
13 39.00 1500.00 411 1470 2.050 10000.000 0.000 -0.824
14 42.00 1500.00 447 1443 2.050 10000.000 0.000 -0.824
15 45.00 1500.00 399 1449 2.050 10000.000 0.000 -0.824
16 48.00 1500.00 446 1439 2.050 10000.000 0.000 -0.824
17 51.00 1500.00 388 1461 2.050 10000.000 0.000 -0.824
18 54.00 1500.00 429 1447 2.050 10000.000 0.000 -0.824
19 57.00 1500.00 394 1475 2.050 10000.000 0.000 -0.824
20 60.00 1500.00 400 1389 2.050 10000.000 0.000 -0.824
21 63.00 1500.00 392 1393 2.050 10000.000 0.000 -0.824
22 66.00 1500.00 369 1381 2.050 10000.000 0.000 -0.824
23 69.00 1500.00 346 1279 2.050 10000.000 0.000 -0.824
24 72.00 1500.00 357 1294 2.050 10000.000 0.000 -0.824
25 75.00 1500.00 292 1186 2.050 10000.000 0.000 -0.824
26 78.00 1500.00 325 1156 2.050 10000.000 0.000 -0.824
27 81.00 1500.00 268 993 2.050 10000.000 0.000 -0.824
28 84.00 1500.00 299 922 2.050 10000.000 0.000 -0.824
29 87.00 1500.00 279 926 2.050 10000.000 0.000 -0.824
30 90.00 1500.00 267 864 2.050 10000.000 0.000 -0.824
31 93.00 1500.00 270 802 2.050 10000.000 0.000 -0.824
32 96.00 1500.00 252 815 2.050 10000.000 0.000 -0.824
33 99.00 1500.00 272 815 2.050 10000.000 0.000 -0.824
34 102.00 1500.00 300 803 2.050 10000.000 0.000 -0.824
35 105.00 1500.00 318 865 2.050 10000.000 0.000 -0.824
36 108.00 1500.00 314 947 2.050 10000.000 0.000 -0.824
37 111.00 1500.00 309 989 2.050 10000.000 0.000 -0.824
38 114.00 1500.00 307 1074 2.050 10000.000 0.000 -0.824
39 117.00 1500.00 319 1084 2.050 10000.000 0.000 -0.824
40 120.00 1500.00 344 1197 2.050 10000.000 0.000 -0.824
41 123.00 1500.00 417 1242 2.050 10000.000 0.000 -0.824
42 126.00 1500.00 389 1361 2.050 10000.000 0.000 -0.824
43 129.00 1500.00 432 1351 2.050 10000.000 0.000 -0.824
44 132.00 1500.00 399 1509 2.050 10000.000 0.000 -0.824
45 135.00 1500.00 398 1485 2.050 10000.000 0.000 -0.824
46 138.00 1500.00 422 1544 2.050 10000.000 0.000 -0.824
47 141.00 1500.00 430 1445 2.050 10000.000 0.000 -0.824
48 144.00 1500.00 418 1489 2.050 10000.000 0.000 -0.824
49 147.00 1500.00 456 1511 2.050 10000.000 0.000 -0.824
50 150.00 1500.00 455 1530 2.050 10000.000 0.000 -0.824
51 153.00 1500.00 475 1483 2.050 10000.000 0.000 -0.824
52 156.00 1500.00 432 1477 2.050 10000.000 0.000 -0.824
53 159.00 1500.00 416 1376 2.050 10000.000 0.000 -0.824
54 162.00 1500.00 401 1425 2.050 10000.000 0.000 -0.824
55 165.00 1500.00 372 1370 2.050 10000.000 0.000 -0.824
56 168.00 1500.00 353 1264 2.050 10000.000 0.000 -0.824
57 171.00 1500.00 315 1285 2.050 10000.000 0.000 -0.824
58 174.00 1500.00 339 1123 2.050 10000.000 0.000 -0.824
59 177.00 1500.00 313 1063 2.050 10000.000 0.000 -0.824
60 180.00 1500.00 299 1058 2.050 10000.000 0.000 -0.824
61 183.00 1500.00 283 928 2.050 10000.000 0.000 -0.824
62 186.00 1500.00 296 885 2.050 10000.000 0.000 -0.824
63 189.00 1500.00 282 853 2.050 10000.000 0.000 -0.824
64 192.00 1500.00 275 814 2.050 10000.000 0.000 -0.824
65 195.00 1500.00 238 819 2.050 10000.000 0.000 -0.824
66 198.00 1500.00 262 803 2.050 10000.000 0.000 -0.824
67 201.00 1500.00 292 822 2.050 10000.000 0.000 -0.824
68 204.00 1500.00 286 823 2.050 10000.000 0.000 -0.824
69 207.00 1500.00 281 869 2.050 10000.000 0.000 -0.824
70 210.00 1500.00 316 962 2.050 10000.000 0.000 -0.824
71 213.00 1500.00 339 1086 2.050 10000.000 0.000 -0.824
72 216.00 1500.00 312 1109 2.050 10000.000 0.000 -0.824
73 219.00 1500.00 331 1162 2.050 10000.000 0.000 -0.824
74 222.00 1500.00 374 1294 2.050 10000.000 0.000 -0.824
75 225.00 1500.00 389 1348 2.050 10000.000 0.000 -0.824
76 228.00 1500.00 388 1374 2.050 10000.000 0.000 -0.824
77 231.00 1500.00 404 1474 2.050 10000.000 0.000 -0.824
78 234.00 1500.00 415 1439 2.050 10000.000 0.000 -0.824
79 237.00 1500.00 425 1447 2.050 10000.000 0.000 -0.824
80 240.00 1500.00 401 1453 2.050 10000.000 0.000 -0.824
81 243.00 1500.00 398 1427 2.050 10000.000 0.000 -0.824
82 246.00 1500.00 480 1510 2.050 10000.000 0.000 -0.824
83 249.00 1500.00 444 1485 2.050 10000.000 0.000 -0.824
84 252.00 1500.00 465 1389 2.050 10000.000 0.000 -0.824
85 255.00 1500.00 403 1462 2.050 10000.000 0.000 -0.824
86 258.00 1500.00 399 1439 2.050 10000.000 0.000 -0.824
87 261.00 1500.00 390 1478 2.050 10000.000 0.000 -0.824
88 264.00 1500.00 396 1388 2.050 10000.000 0.000 -0.824
89 267.00 1500.00 376 1326 2.050 10000.000 0.000 -0.824
90 270.00 1500.00 358 1237 2.050 10000.000 0.000 -0.824
91 273.00 1500.00 321 1224 2.050 10000.000 0.000 -0.824
92 276.00 1500.00 307 1088 2.050 10000.000 0.000 -0.824
93 279.00 1500.00 280 1054 2.050 10000.000 0.000 -0.824
94 282.00 1500.00 301 1007 2.050 10000.000 0.000 -0.824
95 285.00 1500.00 255 894 2.050 10000.000 0.000 -0.824
96 288.00 1500.00 279 884 2.050 10000.000 0.000 -0.824
97 291.00 1500.00 275 805 2.050 10000.000 0.000 -0.824
98 294.00 1500.00 289 793 2.050 10000.000 0.000 -0.824
99 297.00 1500.00 261 795 2.050 10000.000 0.000 -0.824
100 300.00 1500.00 261 804 2.050 10000.000 0.000 -0.824
101 303.00 1500.00 281 834 2.050 10000.000 0.000 -0.824
102 306.00 1500.00 292 888 2.050 10000.000 0.000 -0.824
103 309.00 1500.00 314 975 2.050 10000.000 0.000 -0.824
104 312.00 1500.00 348 1011 2.050 10000.000 0.000 -0.824
105 315.00 1500.00 307 1084 2.050 10000.000 0.000 -0.824
106 318.00 1500.00 350 1159 2.050 10000.000 0.000 -0.824
107 321.00 1500.00 379 1278 2.050 10000.000 0.000 -0.824
108 324.00 1500.00 368 1317 2.050 10000.000 0.000 -0.824
109 327.00 1500.00 381 1356 2.050 10000.000 0.000 -0.824
110 330.00 1500.00 423 1453 2.050 10000.000 0.000 -0.824
111 333.00 1500.00 408 1447 2.050 10000.000 0.000 -0.824
112 336.00 1500.00 386 1510 2.050 10000.000 0.000 -0.824
113 339.00 1500.00 424 1512 2.050 10000.000 0.000 -0.824
114 342.00 1500.00 465 1534 2.050 10000.000 0.000 -0.824
115 345.00 1500.00 404 1469 2.050 10000.000 0.000 -0.824
116 348.00 1500.00 424 1523 2.050 10000.000 0.000 -0.824
117 351.00 1500.00 381 1400 2.050 10000.000 0.000 -0.824
118 354.00 1500.00 424 1467 2.050 10000.000 0.000 -0.824
119 357.00 1500.00 424 1404 2.050 10000.000 0.000 -0.824
120 360.00 1500.00 441 1428 2.050 10000.000 0.000 -0.824
121 363.00 1500.00 404 1430 2.050 10000.000 0.000 -0.824
122 366.00 1500.00 375 1315 2.050 10000.000 0.000 -0.824
123 369.00 1500.00 364 1240 2.050 10000.000 0.000 -0.824
124 372.00 1500.00 329 1202 2.050 10000.000 0.000 -0.824
125 375.00 1500.00 336 1148 2.050 10000.000 0.000 -0.824
126 378.00 1500.00 322 1088 2.050 10000.000 0.000 -0.824
127 381.00 1500.00 300 970 2.050 10000.000 0.000 -0.824
128 384.00 1500.00 311 962 2.050 10000.000 0.000 -0.824
129 387.00 1500.00 303 894 2.050 10000.000 0.000 -0.824
130 390.00 1500.00 298 808 2.050 10000.000 0.000 -0.824
131 393.00 1500.00 269 833 2.050 10000.000 0.000 -0.824
132 396.00 1500.00 284 815 2.050 10000.000 0.000 -0.824
133 399.00 1500.00 267 804 2.050 10000.000 0.000 -0.824
134 402.00 1500.00 260 884 2.050 10000.000 0.000 -0.824
