# BinNR microsec tot-time (s)  O-Beam AUX Ampl(V) f(Hz) phase(deg) chi(pos)
0 0.00 1500.01 80 129 2.050 10000.000 0.000 -1.165
1 3.00 1500.01 169 283 2.050 10000.000 0.000 -1.165
2 6.00 1500.01 184 345 2.050 10000.000 0.000 -1.165
3 9.00 1500.01 193 386 2.050 10000.000 0.000 -1.165
4 12.00 1500.01 203 425 2.050 10000.000 0.000 -1.165
5 15.00 1500.01 201 503 2.050 10000.000 0.000 -1.165
6 18.00 1500.01 214 574 2.050 10000.000 0.000 -1.165
7 21.00 1500.01 236 659 2.050 10000.000 0.000 -1.165
8 24.00 1500.01 210 746 2.050 10000.000 0.000 -1.165
9 27.00 1500.01 202 820 2.050 10000.000 0.000 -1.165
10 30.00 1500.01 269 905 2.050 10000.000 0.000 -1.165
11 33.00 1500.01 259 926 2.050 10000.000 0.000 -1.165
12 36.00 1500.01 280 943 2.050 10000.000 0.000 -1.165
13 39.00 1500.01 260 957 2.050 10000.000 0.000 -1.165
14 42.00 1500.01 272 959 2.050 10000.000 0.000 -1.165
15 45.00 1500.01 289 874 2.050 10000.000 0.000 -1.165
16 48.00 1500.01 305 903 2.050 10000.000 0.000 -1.165
17 51.00 1500.01 270 918 2.050 10000.000 0.000 -1.165
18 54.00 1500.01 273 858 2.050 10000.000 0.000 -1.165
19 57.00 1500.01 237 899 2.050 10000.000 0.000 -1.165
20 60.00 1500.01 228 806 2.050 10000.000 0.000 -1.165
21 63.00 1500.01 236 708 2.050 10000.000 0.000 -1.165
22 66.00 1500.01 220 737 2.050 10000.000 0.000 -1.165
23 69.00 1500.01 171 650 2.050 10000.000 0.000 -1.165
24 72.00 1500.01 178 606 2.050 10000.000 0.000 -1.165
25 75.00 1500.01 207 451 2.050 10000.000 0.000 -1.165
26 78.00 1500.01 160 414 2.050 10000.000 0.000 -1.165
27 81.00 1500.01 148 392 2.050 10000.000 0.000 -1.165
28 84.00 1500.01 159 318 2.050 10000.000 0.000 -1.165
29 87.00 1500.01 169 275 2.050 10000.000 0.000 -1.165
30 90.00 1500.01 183 280 2.050 10000.000 0.000 -1.165
31 93.00 1500.01 158 238 2.050 10000.000 0.000 -1.165
32 96.00 1500.01 158 263 2.050 10000.000 0.000 -1.165
33 99.00 1500.01 146 225 2.050 10000.000 0.000 -1.165
34 102.00 1500.01 162 248 2.050 10000.000 0.000 -1.165
35 105.00 1500.01 195 253 2.050 10000.000 0.000 -1.165
36 108.00 1500.01 187 330 2.050 10000.000 0.000 -1.165
37 111.00 1500.01 170 365 2.050 10000.000 0.000 -1.165
38 114.00 1500.01 189 391 2.050 10000.000 0.000 -1.165
39 117.00 1500.01 234 426 2.050 10000.000 0.000 -1.165
40 120.00 1500.01 215 498 2.050 10000.000 0.000 -1.165
41 123.00 1500.01 226 617 2.050 10000.000 0.000 -1.165
42 126.00 1500.01 209 753 2.050 10000.000 0.000 -1.165
43 129.00 1500.01 222 777 2.050 10000.000 0.000 -1.165
44 132.00 1500.01 259 828 2.050 10000.000 0.000 -1.165
45 135.00 1500.01 297 901 2.050 10000.000 0.000 -1.165
46 138.00 1500.01 277 1040 2.050 10000.000 0.000 -1.165
47 141.00 1500.01 316 954 2.050 10000.000 0.000 -1.165
48 144.00 1500.01 324 1070 2.050 10000.000 0.000 -1.165
49 147.00 1500.01 278 1025 2.050 10000.000 0.000 -1.165
50 150.00 1500.01 295 1013 2.050 10000.000 0.000 -1.165
51 153.00 1500.01 279 957 2.050 10000.000 0.000 -1.165
52 156.00 1500.01 258 870 2.050 10000.000 0.000 -1.165
53 159.00 1500.01 268 890 2.050 10000.000 0.000 -1.165
54 162.00 1500.01 252 834 2.050 10000.000 0.000 -1.165
55 165.00 1500.01 232 803 2.050 10000.000 0.000 -1.165
56 168.00 1500.01 217 694 2.050 10000.000 0.000 -1.165
57 171.00 1500.01 195 565 2.050 10000.000 0.000 -1.165
58 174.00 1500.01 181 522 2.050 10000.000 0.000 -1.165
59 177.00 1500.01 171 432 2.050 10000.000 0.000 -1.165
60 180.00 1500.01 197 417 2.050 10000.000 0.000 -1.165
61 183.00 1500.01 162 323 2.050 10000.000 0.000 -1.165
62 186.00 1500.01 166 285 2.050 10000.000 0.000 -1.165
63 189.00 1500.01 149 283 2.050 10000.000 0.000 -1.165
64 192.00 1500.01 165 261 2.050 10000.000 0.000 -1.165
65 195.00 1500.01 143 282 2.050 10000.000 0.000 -1.165
66 198.00 1500.01 145 248 2.050 10000.000 0.000 -1.165
67 201.00 1500.01 163 231 2.050 10000.000 0.000 -1.165
68 204.00 1500.01 184 243 2.050 10000.000 0.000 -1.165
69 207.00 1500.01 159 277 2.050 10000.000 0.000 -1.165
70 210.00 1500.01 189 335 2.050 10000.000 0.000 -1.165
71 213.00 1500.01 190 364 2.050 10000.000 0.000 -1.165
72 216.00 1500.01 190 453 2.050 10000.000 0.000 -1.165
73 219.00 1500.01 215 509 2.050 10000.000 0.000 -1.165
74 222.00 1500.01 234 578 2.050 10000.000 0.000 -1.165
75 225.00 1500.01 238 656 2.050 10000.000 0.000 -1.165
76 228.00 1500.01 260 772 2.050 10000.000 0.000 -1.165
77 231.00 1500.01 276 821 2.050 10000.000 0.000 -1.165
78 234.00 1500.01 298 892 2.050 10000.000 0.000 -1.165
79 237.00 1500.01 259 934 2.050 10000.000 0.000 -1.165
80 240.00 1500.01 305 1004 2.050 10000.000 0.000 -1.165
81 243.00 1500.01 281 974 2.050 10000.000 0.000 -1.165
82 246.00 1500.01 284 1060 2.050 10000.000 0.000 -1.165
83 249.00 1500.01 277 999 2.050 10000.000 0.000 -1.165
84 252.00 1500.01 287 1008 2.050 10000.000 0.000 -1.165
85 255.00 1500.01 280 988 2.050 10000.000 0.000 -1.165
86 258.00 1500.01 250 879 2.050 10000.000 0.000 -1.165
87 261.00 1500.01 235 836 2.050 10000.000 0.000 -1.165
88 264.00 1500.01 219 809 2.050 10000.000 0.000 -1.165
89 267.00 1500.01 197 702 2.050 10000.000 0.000 -1.165
90 270.00 1500.01 171 650 2.050 10000.000 0.000 -1.165
91 273.00 1500.01 176 542 2.050 10000.000 0.000 -1.165
92 276.00 1500.01 165 464 2.050 10000.000 0.000 -1.165
93 279.00 1500.01 148 416 2.050 10000.000 0.000 -1.165
94 282.00 1500.01 140 342 2.050 10000.000 0.000 -1.165
95 285.00 1500.01 145 331 2.050 10000.000 0.000 -1.165
96 288.00 1500.01 144 273 2.050 10000.000 0.000 -1.165
97 291.00 1500.01 136 282 2.050 10000.000 0.000 -1.165
98 294.00 1500.01 168 264 2.050 10000.000 0.000 -1.165
99 297.00 1500.01 171 266 2.050 10000.000 0.000 -1.165
100 300.00 1500.01 167 280 2.050 10000.000 0.000 -1.165
101 303.00 1500.01 156 273 2.050 10000.000 0.000 -1.165
102 306.00 1500.01 154 314 2.050 10000.000 0.000 -1.165
103 309.00 1500.01 162 310 2.050 10000.000 0.000 -1.165
104 312.00 1500.01 195 347 2.050 10000.000 0.000 -1.165
105 315.00 1500.01 186 399 2.050 10000.000 0.000 -1.165
106 318.00 1500.01 182 507 2.050 10000.000 0.000 -1.165
107 321.00 1500.01 231 545 2.050 10000.000 0.000 -1.165
108 324.00 1500.01 192 601 2.050 10000.000 0.000 -1.165
109 327.00 1500.01 209 695 2.050 10000.000 0.000 -1.165
110 330.00 1500.01 273 769 2.050 10000.000 0.000 -1.165
111 333.00 1500.01 285 834 2.050 10000.000 0.000 -1.165
112 336.00 1500.01 263 971 2.050 10000.000 0.000 -1.165
113 339.00 1500.01 262 981 2.050 10000.000 0.000 -1.165
114 342.00 1500.01 273 1044 2.050 10000.000 0.000 -1.165
115 345.00 1500.01 268 1009 2.050 10000.000 0.000 -1.165
116 348.00 1500.01 272 1010 2.050 10000.000 0.000 -1.165
117 351.00 1500.01 271 995 2.050 10000.000 0.000 -1.165
118 354.00 1500.01 255 990 2.050 10000.000 0.000 -1.165
119 357.00 1500.01 256 906 2.050 10000.000 0.000 -1.165
120 360.00 1500.01 265 938 2.050 10000.000 0.000 -1.165
121 363.00 1500.01 233 790 2.050 10000.000 0.000 -1.165
122 366.00 1500.01 236 722 2.050 10000.000 0.000 -1.165
123 369.00 1500.01 198 649 2.050 10000.000 0.000 -1.165
124 372.00 1500.01 208 549 2.050 10000.000 0.000 -1.165
125 375.00 1500.01 197 492 2.050 10000.000 0.000 -1.165
126 378.00 1500.01 181 460 2.050 10000.000 0.000 -1.165
127 381.00 1500.01 191 324 2.050 10000.000 0.000 -1.165
128 384.00 1500.01 151 320 2.050 10000.000 0.000 -1.165
129 387.00 1500.01 169 332 2.050 10000.000 0.000 -1.165
130 390.00 1500.01 163 280 2.050 10000.000 0.000 -1.165
131 393.00 1500.01 170 234 2.050 10000.000 0.000 -1.165
132 396.00 1500.01 158 245 2.050 10000.000 0.000 -1.165
133 399.00 1500.01 171 263 2.050 10000.000 0.000 -1.165
134 402.00 1500.01 185 262 2.050 10000.000 0.000 -1.165
