# BinNR microsec tot-time (s)  O-Beam AUX Ampl(V) f(Hz) phase(deg) chi(pos)
0 0.00 1500.00 232 730 2.050 10000.000 0.000 -0.176
1 3.00 1500.00 476 1446 2.050 10000.000 0.000 -0.176
2 6.00 1500.00 418 1378 2.050 10000.000 0.000 -0.176
3 9.00 1500.00 437 1277 2.050 10000.000 0.000 -0.176
4 12.00 1500.00 444 1284 2.050 10000.000 0.000 -0.176
5 15.00 1500.00 447 1174 2.050 10000.000 0.000 -0.176
6 18.00 1500.00 389 1058 2.050 10000.000 0.000 -0.176
7 21.00 1500.00 412 948 2.050 10000.000 0.000 -0.176
8 24.00 1500.00 403 886 2.050 10000.000 0.000 -0.176
9 27.00 1500.00 372 807 2.050 10000.000 0.000 -0.176
10 30.00 1500.00 376 761 2.050 10000.000 0.000 -0.176
11 33.00 1500.00 322 694 2.050 10000.000 0.000 -0.176
12 36.00 1500.00 316 679 2.050 10000.000 0.000 -0.176
13 39.00 1500.00 299 725 2.050 10000.000 0.000 -0.176
14 42.00 1500.00 324 724 2.050 10000.000 0.000 -0.176
15 45.00 1500.00 292 729 2.050 10000.000 0.000 -0.176
16 48.00 1500.00 349 695 2.050 10000.000 0.000 -0.176
17 51.00 1500.00 351 739 2.050 10000.000 0.000 -0.176
18 54.00 1500.00 352 783 2.050 10000.000 0.000 -0.176
19 57.00 1500.00 332 783 2.050 10000.000 0.000 -0.176
20 60.00 1500.00 405 805 2.050 10000.000 0.000 -0.176
21 63.00 1500.00 387 856 2.050 10000.000 0.000 -0.176
22 66.00 1500.00 416 954 2.050 10000.000 0.000 -0.176
23 69.00 1500.00 406 1062 2.050 10000.000 0.000 -0.176
24 72.00 1500.00 459 1039 2.050 10000.000 0.000 -0.176
25 75.00 1500.00 473 1226 2.050 10000.000 0.000 -0.176
26 78.00 1500.00 453 1253 2.050 10000.000 0.000 -0.176
27 81.00 1500.00 526 1257 2.050 10000.000 0.000 -0.176
28 84.00 1500.00 467 1365 2.050 10000.000 0.000 -0.176
29 87.00 1500.00 494 1402 2.050 10000.000 0.000 -0.176
30 90.00 1500.00 482 1375 2.050 10000.000 0.000 -0.176
31 93.00 1500.00 455 1415 2.050 10000.000 0.000 -0.176
32 96.00 1500.00 485 1462 2.050 10000.000 0.000 -0.176
33 99.00 1500.00 447 1519 2.050 10000.000 0.000 -0.176
34 102.00 1500.00 456 1360 2.050 10000.000 0.000 -0.176
35 105.00 1500.00 450 1375 2.050 10000.000 0.000 -0.176
36 108.00 1500.00 443 1323 2.050 10000.000 0.000 -0.176
37 111.00 1500.00 484 1377 2.050 10000.000 0.000 -0.176
38 114.00 1500.00 476 1264 2.050 10000.000 0.000 -0.176
39 117.00 1500.00 402 1198 2.050 10000.000 0.000 -0.176
40 120.00 1500.00 403 1128 2.050 10000.000 0.000 -0.176
41 123.00 1500.00 409 968 2.050 10000.000 0.000 -0.176
42 126.00 1500.00 394 984 2.050 10000.000 0.000 -0.176
43 129.00 1500.00 347 870 2.050 10000.000 0.000 -0.176
44 132.00 1500.00 363 809 2.050 10000.000 0.000 -0.176
45 135.00 1500.00 329 756 2.050 10000.000 0.000 -0.176
46 138.00 1500.00 335 690 2.050 10000.000 0.000 -0.176
47 141.00 1500.00 305 619 2.050 10000.000 0.000 -0.176
48 144.00 1500.00 336 634 2.050 10000.000 0.000 -0.176
49 147.00 1500.00 335 644 2.050 10000.000 0.000 -0.176
50 150.00 1500.00 339 639 2.050 10000.000 0.000 -0.176
51 153.00 1500.00 365 641 2.050 10000.000 0.000 -0.176
52 156.00 1500.00 352 722 2.050 10000.000 0.000 -0.176
53 159.00 1500.00 361 784 2.050 10000.000 0.000 -0.176
54 162.00 1500.00 367 810 2.050 10000.000 0.000 -0.176
55 165.00 1500.00 404 912 2.050 10000.000 0.000 -0.176
56 168.00 1500.00 420 956 2.050 10000.000 0.000 -0.176
57 171.00 1500.00 398 1051 2.050 10000.000 0.000 -0.176
58 174.00 1500.00 456 1173 2.050 10000.000 0.000 -0.176
59 177.00 1500.00 430 1255 2.050 10000.000 0.000 -0.176
60 180.00 1500.00 486 1278 2.050 10000.000 0.000 -0.176
61 183.00 1500.00 458 1336 2.050 10000.000 0.000 -0.176
62 186.00 1500.00 440 1380 2.050 10000.000 0.000 -0.176
63 189.00 1500.00 450 1454 2.050 10000.000 0.000 -0.176
64 192.00 1500.00 468 1481 2.050 10000.000 0.000 -0.176
65 195.00 1500.00 470 1438 2.050 10000.000 0.000 -0.176
66 198.00 1500.00 495 1470 2.050 10000.000 0.000 -0.176
67 201.00 1500.00 491 1394 2.050 10000.000 0.000 -0.176
68 204.00 1500.00 512 1466 2.050 10000.000 0.000 -0.176
69 207.00 1500.00 483 1403 2.050 10000.000 0.000 -0.176
70 210.00 1500.00 480 1368 2.050 10000.000 0.000 -0.176
71 213.00 1500.00 435 1308 2.050 10000.000 0.000 -0.176
72 216.00 1500.00 445 1216 2.050 10000.000 0.000 -0.176
73 219.00 1500.00 378 1124 2.050 10000.000 0.000 -0.176
74 222.00 1500.00 410 1037 2.050 10000.000 0.000 -0.176
75 225.00 1500.00 401 1030 2.050 10000.000 0.000 -0.176
76 228.00 1500.00 411 924 2.050 10000.000 0.000 -0.176
77 231.00 1500.00 340 781 2.050 10000.000 0.000 -0.176
78 234.00 1500.00 344 724 2.050 10000.000 0.000 -0.176
79 237.00 1500.00 358 721 2.050 10000.000 0.000 -0.176
80 240.00 1500.00 348 653 2.050 10000.000 0.000 -0.176
81 243.00 1500.00 330 622 2.050 10000.000 0.000 -0.176
82 246.00 1500.00 328 652 2.050 10000.000 0.000 -0.176
83 249.00 1500.00 334 628 2.050 10000.000 0.000 -0.176
84 252.00 1500.00 350 662 2.050 10000.000 0.000 -0.176
85 255.00 1500.00 343 711 2.050 10000.000 0.000 -0.176
86 258.00 1500.00 383 778 2.050 10000.000 0.000 -0.176
87 261.00 1500.00 393 829 2.050 10000.000 0.000 -0.176
88 264.00 1500.00 425 912 2.050 10000.000 0.000 -0.176
89 267.00 1500.00 449 970 2.050 10000.000 0.000 -0.176
90 270.00 1500.00 468 1076 2.050 10000.000 0.000 -0.176
91 273.00 1500.00 451 1166 2.050 10000.000 0.000 -0.176
92 276.00 1500.00 431 1208 2.050 10000.000 0.000 -0.176
93 279.00 1500.00 511 1288 2.050 10000.000 0.000 -0.176
94 282.00 1500.00 494 1362 2.050 10000.000 0.000 -0.176
95 285.00 1500.00 428 1316 2.050 10000.000 0.000 -0.176
96 288.00 1500.00 501 1401 2.050 10000.000 0.000 -0.176
97 291.00 1500.00 488 1407 2.050 10000.000 0.000 -0.176
98 294.00 1500.00 490 1562 2.050 10000.000 0.000 -0.176
99 297.00 1500.00 450 1449 2.050 10000.000 0.000 -0.176
100 300.00 1500.00 503 1510 2.050 10000.000 0.000 -0.176
101 303.00 1500.00 461 1352 2.050 10000.000 0.000 -0.176
102 306.00 1500.00 486 1419 2.050 10000.000 0.000 -0.176
103 309.00 1500.00 438 1397 2.050 10000.000 0.000 -0.176
104 312.00 1500.00 465 1373 2.050 10000.000 0.000 -0.176
105 315.00 1500.00 429 1208 2.050 10000.000 0.000 -0.176
106 318.00 1500.00 463 1161 2.050 10000.000 0.000 -0.176
107 321.00 1500.00 391 1113 2.050 10000.000 0.000 -0.176
108 324.00 1500.00 420 959 2.050 10000.000 0.000 -0.176
109 327.00 1500.00 404 891 2.050 10000.000 0.000 -0.176
110 330.00 1500.00 371 841 2.050 10000.000 0.000 -0.176
111 333.00 1500.00 360 796 2.050 10000.000 0.000 -0.176
112 336.00 1500.00 349 750 2.050 10000.000 0.000 -0.176
113 339.00 1500.00 325 707 2.050 10000.000 0.000 -0.176
114 342.00 1500.00 364 675 2.050 10000.000 0.000 -0.176
115 345.00 1500.00 334 647 2.050 10000.000 0.000 -0.176
116 348.00 1500.00 328 665 2.050 10000.000 0.000 -0.176
117 351.00 1500.00 354 619 2.050 10000.000 0.000 -0.176
118 354.00 1500.00 351 669 2.050 10000.000 0.000 -0.176
119 357.00 1500.00 380 734 2.050 10000.000 0.000 -0.176
120 360.00 1500.00 370 772 2.050 10000.000 0.000 -0.176
121 363.00 1500.00 369 839 2.050 10000.000 0.000 -0.176
122 366.00 1500.00 389 930 2.050 10000.000 0.000 -0.176
123 369.00 1500.00 406 1012 2.050 10000.000 0.000 -0.176
124 372.00 1500.00 430 1086 2.050 10000.000 0.000 -0.176
125 375.00 1500.00 437 1145 2.050 10000.000 0.000 -0.176
126 378.00 1500.00 450 1238 2.050 10000.000 0.000 -0.176
127 381.00 1500.00 488 1298 2.050 10000.000 0.000 -0.176
128 384.00 1500.00 497 1418 2.050 10000.000 0.000 -0.176
129 387.00 1500.00 448 1388 2.050 10000.000 0.000 -0.176
130 390.00 1500.00 507 1342 2.050 10000.000 0.000 -0.176
131 393.00 1500.00 511 1417 2.050 10000.000 0.000 -0.176
132 396.00 1500.00 465 1466 2.050 10000.000 0.000 -0.176
133 399.00 1500.00 486 1460 2.050 10000.000 0.000 -0.176
134 402.00 1500.00 507 1506 2.050 10000.000 0.000 -0.176
