# BinNR microsec tot-time (s)  O-Beam AUX Ampl(V) f(Hz) phase(deg) chi(pos)
0 0.00 1500.01 85 289 2.050 10000.000 0.000 0.670
1 3.00 1500.01 179 522 2.050 10000.000 0.000 0.670
2 6.00 1500.01 179 419 2.050 10000.000 0.000 0.670
3 9.00 1500.01 160 380 2.050 10000.000 0.000 0.670
4 12.00 1500.01 153 363 2.050 10000.000 0.000 0.670
5 15.00 1500.01 169 284 2.050 10000.000 0.000 0.670
6 18.00 1500.01 144 244 2.050 10000.000 0.000 0.670
7 21.00 1500.01 162 226 2.050 10000.000 0.000 0.670
8 24.00 1500.01 148 200 2.050 10000.000 0.000 0.670
9 27.00 1500.01 145 179 2.050 10000.000 0.000 0.670
10 30.00 1500.01 132 209 2.050 10000.000 0.000 0.670
11 33.00 1500.01 160 184 2.050 10000.000 0.000 0.670
12 36.00 1500.01 160 202 2.050 10000.000 0.000 0.670
13 39.00 1500.01 145 173 2.050 10000.000 0.000 0.670
14 42.00 1500.01 153 191 2.050 10000.000 0.000 0.670
15 45.00 1500.01 162 170 2.050 10000.000 0.000 0.670
16 48.00 1500.01 190 184 2.050 10000.000 0.000 0.670
17 51.00 1500.01 177 194 2.050 10000.000 0.000 0.670
18 54.00 1500.01 166 186 2.050 10000.000 0.000 0.670
19 57.00 1500.01 172 193 2.050 10000.000 0.000 0.670
20 60.00 1500.01 162 186 2.050 10000.000 0.000 0.670
21 63.00 1500.01 180 226 2.050 10000.000 0.000 0.670
22 66.00 1500.01 168 195 2.050 10000.000 0.000 0.670
23 69.00 1500.01 180 219 2.050 10000.000 0.000 0.670
24 72.00 1500.01 188 264 2.050 10000.000 0.000 0.670
25 75.00 1500.01 173 287 2.050 10000.000 0.000 0.670
26 78.00 1500.01 199 344 2.050 10000.000 0.000 0.670
27 81.00 1500.01 185 386 2.050 10000.000 0.000 0.670
28 84.00 1500.01 194 492 2.050 10000.000 0.000 0.670
29 87.00 1500.01 212 503 2.050 10000.000 0.000 0.670
30 90.00 1500.01 179 583 2.050 10000.000 0.000 0.670
31 93.00 1500.01 190 524 2.050 10000.000 0.000 0.670
32 96.00 1500.01 187 588 2.050 10000.000 0.000 0.670
33 99.00 1500.01 174 547 2.050 10000.000 0.000 0.670
34 102.00 1500.01 199 545 2.050 10000.000 0.000 0.670
35 105.00 1500.01 146 543 2.050 10000.000 0.000 0.670
36 108.00 1500.01 183 472 2.050 10000.000 0.000 0.670
37 111.00 1500.01 160 449 2.050 10000.000 0.000 0.670
38 114.00 1500.01 147 386 2.050 10000.000 0.000 0.670
39 117.00 1500.01 141 335 2.050 10000.000 0.000 0.670
40 120.00 1500.01 137 267 2.050 10000.000 0.000 0.670
41 123.00 1500.01 128 226 2.050 10000.000 0.000 0.670
42 126.00 1500.01 144 210 2.050 10000.000 0.000 0.670
43 129.00 1500.01 157 183 2.050 10000.000 0.000 0.670
44 132.00 1500.01 157 183 2.050 10000.000 0.000 0.670
45 135.00 1500.01 164 198 2.050 10000.000 0.000 0.670
46 138.00 1500.01 193 182 2.050 10000.000 0.000 0.670
47 141.00 1500.01 168 212 2.050 10000.000 0.000 0.670
48 144.00 1500.01 165 217 2.050 10000.000 0.000 0.670
49 147.00 1500.01 150 176 2.050 10000.000 0.000 0.670
50 150.00 1500.01 167 209 2.050 10000.000 0.000 0.670
51 153.00 1500.01 176 179 2.050 10000.000 0.000 0.670
52 156.00 1500.01 171 182 2.050 10000.000 0.000 0.670
53 159.00 1500.01 155 170 2.050 10000.000 0.000 0.670
54 162.00 1500.01 181 172 2.050 10000.000 0.000 0.670
55 165.00 1500.01 155 184 2.050 10000.000 0.000 0.670
56 168.00 1500.01 158 196 2.050 10000.000 0.000 0.670
57 171.00 1500.01 187 242 2.050 10000.000 0.000 0.670
58 174.00 1500.01 180 286 2.050 10000.000 0.000 0.670
59 177.00 1500.01 191 306 2.050 10000.000 0.000 0.670
60 180.00 1500.01 177 400 2.050 10000.000 0.000 0.670
61 183.00 1500.01 213 425 2.050 10000.000 0.000 0.670
62 186.00 1500.01 203 491 2.050 10000.000 0.000 0.670
63 189.00 1500.01 178 551 2.050 10000.000 0.000 0.670
64 192.00 1500.01 193 568 2.050 10000.000 0.000 0.670
65 195.00 1500.01 159 598 2.050 10000.000 0.000 0.670
66 198.00 1500.01 217 603 2.050 10000.000 0.000 0.670
67 201.00 1500.01 180 514 2.050 10000.000 0.000 0.670
68 204.00 1500.01 181 557 2.050 10000.000 0.000 0.670
69 207.00 1500.01 196 492 2.050 10000.000 0.000 0.670
70 210.00 1500.01 160 432 2.050 10000.000 0.000 0.670
71 213.00 1500.01 139 385 2.050 10000.000 0.000 0.670
72 216.00 1500.01 155 380 2.050 10000.000 0.000 0.670
73 219.00 1500.01 153 335 2.050 10000.000 0.000 0.670
74 222.00 1500.01 141 239 2.050 10000.000 0.000 0.670
75 225.00 1500.01 152 236 2.050 10000.000 0.000 0.670
76 228.00 1500.01 161 231 2.050 10000.000 0.000 0.670
77 231.00 1500.01 172 175 2.050 10000.000 0.000 0.670
78 234.00 1500.01 155 183 2.050 10000.000 0.000 0.670
79 237.00 1500.01 162 217 2.050 10000.000 0.000 0.670
80 240.00 1500.01 167 207 2.050 10000.000 0.000 0.670
81 243.00 1500.01 157 213 2.050 10000.000 0.000 0.670
82 246.00 1500.01 176 180 2.050 10000.000 0.000 0.670
83 249.00 1500.01 170 223 2.050 10000.000 0.000 0.670
84 252.00 1500.01 168 205 2.050 10000.000 0.000 0.670
85 255.00 1500.01 158 190 2.050 10000.000 0.000 0.670
86 258.00 1500.01 175 187 2.050 10000.000 0.000 0.670
87 261.00 1500.01 177 176 2.050 10000.000 0.000 0.670
88 264.00 1500.01 146 161 2.050 10000.000 0.000 0.670
89 267.00 1500.01 151 204 2.050 10000.000 0.000 0.670
90 270.00 1500.01 183 221 2.050 10000.000 0.000 0.670
91 273.00 1500.01 158 263 2.050 10000.000 0.000 0.670
92 276.00 1500.01 193 325 2.050 10000.000 0.000 0.670
93 279.00 1500.01 180 376 2.050 10000.000 0.000 0.670
94 282.00 1500.01 195 460 2.050 10000.000 0.000 0.670
95 285.00 1500.01 197 498 2.050 10000.000 0.000 0.670
96 288.00 1500.01 191 540 2.050 10000.000 0.000 0.670
97 291.00 1500.01 197 559 2.050 10000.000 0.000 0.670
98 294.00 1500.01 201 574 2.050 10000.000 0.000 0.670
99 297.00 1500.01 187 603 2.050 10000.000 0.000 0.670
100 300.00 1500.01 168 546 2.050 10000.000 0.000 0.670
101 303.00 1500.01 204 530 2.050 10000.000 0.000 0.670
102 306.00 1500.01 171 524 2.050 10000.000 0.000 0.670
103 309.00 1500.01 188 463 2.050 10000.000 0.000 0.670
104 312.00 1500.01 171 419 2.050 10000.000 0.000 0.670
105 315.00 1500.01 158 377 2.050 10000.000 0.000 0.670
106 318.00 1500.01 156 375 2.050 10000.000 0.000 0.670
107 321.00 1500.01 138 274 2.050 10000.000 0.000 0.670
108 324.00 1500.01 140 233 2.050 10000.000 0.000 0.670
109 327.00 1500.01 167 196 2.050 10000.000 0.000 0.670
110 330.00 1500.01 153 198 2.050 10000.000 0.000 0.670
111 333.00 1500.01 170 176 2.050 10000.000 0.000 0.670
112 336.00 1500.01 154 181 2.050 10000.000 0.000 0.670
113 339.00 1500.01 152 189 2.050 10000.000 0.000 0.670
114 342.00 1500.01 156 187 2.050 10000.000 0.000 0.670
115 345.00 1500.01 166 187 2.050 10000.000 0.000 0.670
116 348.00 1500.01 157 224 2.050 10000.000 0.000 0.670
117 351.00 1500.01 171 202 2.050 10000.000 0.000 0.670
118 354.00 1500.01 148 214 2.050 10000.000 0.000 0.670
119 357.00 1500.01 156 186 2.050 10000.000 0.000 0.670
120 360.00 1500.01 164 193 2.050 10000.000 0.000 0.670
121 363.00 1500.01 182 179 2.050 10000.000 0.000 0.670
122 366.00 1500.01 148 212 2.050 10000.000 0.000 0.670
123 369.00 1500.01 182 253 2.050 10000.000 0.000 0.670
124 372.00 1500.01 149 261 2.050 10000.000 0.000 0.670
125 375.00 1500.01 191 319 2.050 10000.000 0.000 0.670
126 378.00 1500.01 181 337 2.050 10000.000 0.000 0.670
127 381.00 1500.01 182 406 2.050 10000.000 0.000 0.670
128 384.00 1500.01 171 510 2.050 10000.000 0.000 0.670
129 387.00 1500.01 208 524 2.050 10000.000 0.000 0.670
130 390.00 1500.01 176 537 2.050 10000.000 0.000 0.670
131 393.00 1500.01 189 581 2.050 10000.000 0.000 0.670
132 396.00 1500.01 197 556 2.050 10000.000 0.000 0.670
133 399.00 1500.01 219 553 2.050 10000.000 0.000 0.670
134 402.00 1500.01 208 596 2.050 10000.000 0.000 0.670
