# BinNR microsec tot-time (s)  O-Beam AUX Ampl(V) f(Hz) phase(deg) chi(pos)
0 0.00 1500.01 102 107 2.050 10000.000 0.000 0.154
1 3.00 1500.01 188 273 2.050 10000.000 0.000 0.154
2 6.00 1500.01 247 286 2.050 10000.000 0.000 0.154
3 9.00 1500.01 238 325 2.050 10000.000 0.000 0.154
4 12.00 1500.01 251 348 2.050 10000.000 0.000 0.154
5 15.00 1500.01 264 462 2.050 10000.000 0.000 0.154
6 18.00 1500.01 281 518 2.050 10000.000 0.000 0.154
7 21.00 1500.01 291 593 2.050 10000.000 0.000 0.154
8 24.00 1500.01 298 678 2.050 10000.000 0.000 0.154
9 27.00 1500.01 321 689 2.050 10000.000 0.000 0.154
10 30.00 1500.01 362 783 2.050 10000.000 0.000 0.154
11 33.00 1500.01 337 809 2.050 10000.000 0.000 0.154
12 36.00 1500.01 360 825 2.050 10000.000 0.000 0.154
13 39.00 1500.01 384 840 2.050 10000.000 0.000 0.154
14 42.00 1500.01 395 783 2.050 10000.000 0.000 0.154
15 45.00 1500.01 370 853 2.050 10000.000 0.000 0.154
16 48.00 1500.01 364 812 2.050 10000.000 0.000 0.154
17 51.00 1500.01 361 821 2.050 10000.000 0.000 0.154
18 54.00 1500.01 371 762 2.050 10000.000 0.000 0.154
19 57.00 1500.01 327 739 2.050 10000.000 0.000 0.154
20 60.00 1500.01 292 688 2.050 10000.000 0.000 0.154
21 63.00 1500.01 310 663 2.050 10000.000 0.000 0.154
22 66.00 1500.01 356 633 2.050 10000.000 0.000 0.154
23 69.00 1500.01 289 578 2.050 10000.000 0.000 0.154
24 72.00 1500.01 288 502 2.050 10000.000 0.000 0.154
25 75.00 1500.01 256 429 2.050 10000.000 0.000 0.154
26 78.00 1500.01 228 338 2.050 10000.000 0.000 0.154
27 81.00 1500.01 250 316 2.050 10000.000 0.000 0.154
28 84.00 1500.01 215 242 2.050 10000.000 0.000 0.154
29 87.00 1500.01 201 240 2.050 10000.000 0.000 0.154
30 90.00 1500.01 197 221 2.050 10000.000 0.000 0.154
31 93.00 1500.01 216 249 2.050 10000.000 0.000 0.154
32 96.00 1500.01 209 219 2.050 10000.000 0.000 0.154
33 99.00 1500.01 194 223 2.050 10000.000 0.000 0.154
34 102.00 1500.01 194 241 2.050 10000.000 0.000 0.154
35 105.00 1500.01 211 269 2.050 10000.000 0.000 0.154
36 108.00 1500.01 201 232 2.050 10000.000 0.000 0.154
37 111.00 1500.01 206 311 2.050 10000.000 0.000 0.154
38 114.00 1500.01 260 353 2.050 10000.000 0.000 0.154
39 117.00 1500.01 295 374 2.050 10000.000 0.000 0.154
40 120.00 1500.01 300 434 2.050 10000.000 0.000 0.154
41 123.00 1500.01 323 521 2.050 10000.000 0.000 0.154
42 126.00 1500.01 323 619 2.050 10000.000 0.000 0.154
43 129.00 1500.01 347 730 2.050 10000.000 0.000 0.154
44 132.00 1500.01 364 781 2.050 10000.000 0.000 0.154
45 135.00 1500.01 335 836 2.050 10000.000 0.000 0.154
46 138.00 1500.01 363 864 2.050 10000.000 0.000 0.154
47 141.00 1500.01 399 875 2.050 10000.000 0.000 0.154
48 144.00 1500.01 370 934 2.050 10000.000 0.000 0.154
49 147.00 1500.01 399 900 2.050 10000.000 0.000 0.154
50 150.00 1500.01 375 872 2.050 10000.000 0.000 0.154
51 153.00 1500.01 371 851 2.050 10000.000 0.000 0.154
52 156.00 1500.01 380 833 2.050 10000.000 0.000 0.154
53 159.00 1500.01 325 756 2.050 10000.000 0.000 0.154
54 162.00 1500.01 294 746 2.050 10000.000 0.000 0.154
55 165.00 1500.01 291 670 2.050 10000.000 0.000 0.154
56 168.00 1500.01 268 520 2.050 10000.000 0.000 0.154
57 171.00 1500.01 268 498 2.050 10000.000 0.000 0.154
58 174.00 1500.01 262 439 2.050 10000.000 0.000 0.154
59 177.00 1500.01 214 362 2.050 10000.000 0.000 0.154
60 180.00 1500.01 226 331 2.050 10000.000 0.000 0.154
61 183.00 1500.01 186 272 2.050 10000.000 0.000 0.154
62 186.00 1500.01 237 254 2.050 10000.000 0.000 0.154
63 189.00 1500.01 209 238 2.050 10000.000 0.000 0.154
64 192.00 1500.01 217 234 2.050 10000.000 0.000 0.154
65 195.00 1500.01 188 216 2.050 10000.000 0.000 0.154
66 198.00 1500.01 211 225 2.050 10000.000 0.000 0.154
67 201.00 1500.01 185 229 2.050 10000.000 0.000 0.154
68 204.00 1500.01 193 237 2.050 10000.000 0.000 0.154
69 207.00 1500.01 236 277 2.050 10000.000 0.000 0.154
70 210.00 1500.01 241 295 2.050 10000.000 0.000 0.154
71 213.00 1500.01 282 347 2.050 10000.000 0.000 0.154
72 216.00 1500.01 304 373 2.050 10000.000 0.000 0.154
73 219.00 1500.01 284 392 2.050 10000.000 0.000 0.154
74 222.00 1500.01 289 511 2.050 10000.000 0.000 0.154
75 225.00 1500.01 336 517 2.050 10000.000 0.000 0.154
76 228.00 1500.01 319 681 2.050 10000.000 0.000 0.154
77 231.00 1500.01 347 708 2.050 10000.000 0.000 0.154
78 234.00 1500.01 400 804 2.050 10000.000 0.000 0.154
79 237.00 1500.01 394 818 2.050 10000.000 0.000 0.154
80 240.00 1500.01 371 902 2.050 10000.000 0.000 0.154
81 243.00 1500.01 374 869 2.050 10000.000 0.000 0.154
82 246.00 1500.01 361 987 2.050 10000.000 0.000 0.154
83 249.00 1500.01 359 897 2.050 10000.000 0.000 0.154
84 252.00 1500.01 422 893 2.050 10000.000 0.000 0.154
85 255.00 1500.01 375 843 2.050 10000.000 0.000 0.154
86 258.00 1500.01 337 838 2.050 10000.000 0.000 0.154
87 261.00 1500.01 356 711 2.050 10000.000 0.000 0.154
88 264.00 1500.01 312 685 2.050 10000.000 0.000 0.154
89 267.00 1500.01 270 628 2.050 10000.000 0.000 0.154
90 270.00 1500.01 261 527 2.050 10000.000 0.000 0.154
91 273.00 1500.01 241 463 2.050 10000.000 0.000 0.154
92 276.00 1500.01 265 416 2.050 10000.000 0.000 0.154
93 279.00 1500.01 223 351 2.050 10000.000 0.000 0.154
94 282.00 1500.01 219 316 2.050 10000.000 0.000 0.154
95 285.00 1500.01 212 252 2.050 10000.000 0.000 0.154
96 288.00 1500.01 199 238 2.050 10000.000 0.000 0.154
97 291.00 1500.01 180 234 2.050 10000.000 0.000 0.154
98 294.00 1500.01 197 207 2.050 10000.000 0.000 0.154
99 297.00 1500.01 212 224 2.050 10000.000 0.000 0.154
100 300.00 1500.01 193 254 2.050 10000.000 0.000 0.154
101 303.00 1500.01 205 213 2.050 10000.000 0.000 0.154
102 306.00 1500.01 200 277 2.050 10000.000 0.000 0.154
103 309.00 1500.01 228 281 2.050 10000.000 0.000 0.154
104 312.00 1500.01 236 307 2.050 10000.000 0.000 0.154
105 315.00 1500.01 220 361 2.050 10000.000 0.000 0.154
106 318.00 1500.01 290 404 2.050 10000.000 0.000 0.154
107 321.00 1500.01 310 490 2.050 10000.000 0.000 0.154
108 324.00 1500.01 321 580 2.050 10000.000 0.000 0.154
109 327.00 1500.01 319 636 2.050 10000.000 0.000 0.154
110 330.00 1500.01 375 693 2.050 10000.000 0.000 0.154
111 333.00 1500.01 368 759 2.050 10000.000 0.000 0.154
112 336.00 1500.01 370 861 2.050 10000.000 0.000 0.154
113 339.00 1500.01 377 930 2.050 10000.000 0.000 0.154
114 342.00 1500.01 388 910 2.050 10000.000 0.000 0.154
115 345.00 1500.01 341 870 2.050 10000.000 0.000 0.154
116 348.00 1500.01 406 838 2.050 10000.000 0.000 0.154
117 351.00 1500.01 379 852 2.050 10000.000 0.000 0.154
118 354.00 1500.01 356 887 2.050 10000.000 0.000 0.154
119 357.00 1500.01 351 823 2.050 10000.000 0.000 0.154
120 360.00 1500.01 330 761 2.050 10000.000 0.000 0.154
121 363.00 1500.01 316 679 2.050 10000.000 0.000 0.154
122 366.00 1500.01 304 627 2.050 10000.000 0.000 0.154
123 369.00 1500.01 275 564 2.050 10000.000 0.000 0.154
124 372.00 1500.01 292 481 2.050 10000.000 0.000 0.154
125 375.00 1500.01 282 386 2.050 10000.000 0.000 0.154
126 378.00 1500.01 286 343 2.050 10000.000 0.000 0.154
127 381.00 1500.01 233 313 2.050 10000.000 0.000 0.154
128 384.00 1500.01 223 284 2.050 10000.000 0.000 0.154
129 387.00 1500.01 243 249 2.050 10000.000 0.000 0.154
130 390.00 1500.01 205 242 2.050 10000.000 0.000 0.154
131 393.00 1500.01 199 205 2.050 10000.000 0.000 0.154
132 396.00 1500.01 211 219 2.050 10000.000 0.000 0.154
133 399.00 1500.01 200 221 2.050 10000.000 0.000 0.154
134 402.00 1500.01 195 209 2.050 10000.000 0.000 0.154
