# BinNR microsec tot-time (s)  O-Beam AUX Ampl(V) f(Hz) phase(deg) chi(pos)
0 0.00 1500.00 78 184 2.050 10000.000 0.000 -1.505
1 3.00 1500.00 156 347 2.050 10000.000 0.000 -1.505
2 6.00 1500.00 171 252 2.050 10000.000 0.000 -1.505
3 9.00 1500.00 164 281 2.050 10000.000 0.000 -1.505
4 12.00 1500.00 177 226 2.050 10000.000 0.000 -1.505
5 15.00 1500.00 162 220 2.050 10000.000 0.000 -1.505
6 18.00 1500.00 153 192 2.050 10000.000 0.000 -1.505
7 21.00 1500.00 157 189 2.050 10000.000 0.000 -1.505
8 24.00 1500.00 178 199 2.050 10000.000 0.000 -1.505
9 27.00 1500.00 197 203 2.050 10000.000 0.000 -1.505
10 30.00 1500.00 215 238 2.050 10000.000 0.000 -1.505
11 33.00 1500.00 184 235 2.050 10000.000 0.000 -1.505
12 36.00 1500.00 204 258 2.050 10000.000 0.000 -1.505
13 39.00 1500.00 196 228 2.050 10000.000 0.000 -1.505
14 42.00 1500.00 207 271 2.050 10000.000 0.000 -1.505
15 45.00 1500.00 199 230 2.050 10000.000 0.000 -1.505
16 48.00 1500.00 199 261 2.050 10000.000 0.000 -1.505
17 51.00 1500.00 216 294 2.050 10000.000 0.000 -1.505
18 54.00 1500.00 204 226 2.050 10000.000 0.000 -1.505
19 57.00 1500.00 180 210 2.050 10000.000 0.000 -1.505
20 60.00 1500.00 180 220 2.050 10000.000 0.000 -1.505
21 63.00 1500.00 191 182 2.050 10000.000 0.000 -1.505
22 66.00 1500.00 177 192 2.050 10000.000 0.000 -1.505
23 69.00 1500.00 162 201 2.050 10000.000 0.000 -1.505
24 72.00 1500.00 189 231 2.050 10000.000 0.000 -1.505
25 75.00 1500.00 158 228 2.050 10000.000 0.000 -1.505
26 78.00 1500.00 166 241 2.050 10000.000 0.000 -1.505
27 81.00 1500.00 176 255 2.050 10000.000 0.000 -1.505
28 84.00 1500.00 203 270 2.050 10000.000 0.000 -1.505
29 87.00 1500.00 176 346 2.050 10000.000 0.000 -1.505
30 90.00 1500.00 168 366 2.050 10000.000 0.000 -1.505
31 93.00 1500.00 169 403 2.050 10000.000 0.000 -1.505
32 96.00 1500.00 174 371 2.050 10000.000 0.000 -1.505
33 99.00 1500.00 171 391 2.050 10000.000 0.000 -1.505
34 102.00 1500.00 144 400 2.050 10000.000 0.000 -1.505
35 105.00 1500.00 137 337 2.050 10000.000 0.000 -1.505
36 108.00 1500.00 152 324 2.050 10000.000 0.000 -1.505
37 111.00 1500.00 148 273 2.050 10000.000 0.000 -1.505
38 114.00 1500.00 157 270 2.050 10000.000 0.000 -1.505
39 117.00 1500.00 125 213 2.050 10000.000 0.000 -1.505
40 120.00 1500.00 174 195 2.050 10000.000 0.000 -1.505
41 123.00 1500.00 160 185 2.050 10000.000 0.000 -1.505
42 126.00 1500.00 181 172 2.050 10000.000 0.000 -1.505
43 129.00 1500.00 169 220 2.050 10000.000 0.000 -1.505
44 132.00 1500.00 193 209 2.050 10000.000 0.000 -1.505
45 135.00 1500.00 204 216 2.050 10000.000 0.000 -1.505
46 138.00 1500.00 184 283 2.050 10000.000 0.000 -1.505
47 141.00 1500.00 214 275 2.050 10000.000 0.000 -1.505
48 144.00 1500.00 215 294 2.050 10000.000 0.000 -1.505
49 147.00 1500.00 228 252 2.050 10000.000 0.000 -1.505
50 150.00 1500.00 204 273 2.050 10000.000 0.000 -1.505
51 153.00 1500.00 194 289 2.050 10000.000 0.000 -1.505
52 156.00 1500.00 202 269 2.050 10000.000 0.000 -1.505
53 159.00 1500.00 181 226 2.050 10000.000 0.000 -1.505
54 162.00 1500.00 192 216 2.050 10000.000 0.000 -1.505
55 165.00 1500.00 177 189 2.050 10000.000 0.000 -1.505
56 168.00 1500.00 186 200 2.050 10000.000 0.000 -1.505
57 171.00 1500.00 166 191 2.050 10000.000 0.000 -1.505
58 174.00 1500.00 191 234 2.050 10000.000 0.000 -1.505
59 177.00 1500.00 188 237 2.050 10000.000 0.000 -1.505
60 180.00 1500.00 196 261 2.050 10000.000 0.000 -1.505
61 183.00 1500.00 182 323 2.050 10000.000 0.000 -1.505
62 186.00 1500.00 171 339 2.050 10000.000 0.000 -1.505
63 189.00 1500.00 179 336 2.050 10000.000 0.000 -1.505
64 192.00 1500.00 175 413 2.050 10000.000 0.000 -1.505
65 195.00 1500.00 160 396 2.050 10000.000 0.000 -1.505
66 198.00 1500.00 160 375 2.050 10000.000 0.000 -1.505
67 201.00 1500.00 156 397 2.050 10000.000 0.000 -1.505
68 204.00 1500.00 158 376 2.050 10000.000 0.000 -1.505
69 207.00 1500.00 162 343 2.050 10000.000 0.000 -1.505
70 210.00 1500.00 158 335 2.050 10000.000 0.000 -1.505
71 213.00 1500.00 144 285 2.050 10000.000 0.000 -1.505
72 216.00 1500.00 164 214 2.050 10000.000 0.000 -1.505
73 219.00 1500.00 128 218 2.050 10000.000 0.000 -1.505
74 222.00 1500.00 187 211 2.050 10000.000 0.000 -1.505
75 225.00 1500.00 174 189 2.050 10000.000 0.000 -1.505
76 228.00 1500.00 190 201 2.050 10000.000 0.000 -1.505
77 231.00 1500.00 191 198 2.050 10000.000 0.000 -1.505
78 234.00 1500.00 190 228 2.050 10000.000 0.000 -1.505
79 237.00 1500.00 208 252 2.050 10000.000 0.000 -1.505
80 240.00 1500.00 201 277 2.050 10000.000 0.000 -1.505
81 243.00 1500.00 216 294 2.050 10000.000 0.000 -1.505
82 246.00 1500.00 211 272 2.050 10000.000 0.000 -1.505
83 249.00 1500.00 192 293 2.050 10000.000 0.000 -1.505
84 252.00 1500.00 220 284 2.050 10000.000 0.000 -1.505
85 255.00 1500.00 196 262 2.050 10000.000 0.000 -1.505
86 258.00 1500.00 175 239 2.050 10000.000 0.000 -1.505
87 261.00 1500.00 170 214 2.050 10000.000 0.000 -1.505
88 264.00 1500.00 189 202 2.050 10000.000 0.000 -1.505
89 267.00 1500.00 180 184 2.050 10000.000 0.000 -1.505
90 270.00 1500.00 182 185 2.050 10000.000 0.000 -1.505
91 273.00 1500.00 170 171 2.050 10000.000 0.000 -1.505
92 276.00 1500.00 173 241 2.050 10000.000 0.000 -1.505
93 279.00 1500.00 191 269 2.050 10000.000 0.000 -1.505
94 282.00 1500.00 178 273 2.050 10000.000 0.000 -1.505
95 285.00 1500.00 149 320 2.050 10000.000 0.000 -1.505
96 288.00 1500.00 170 350 2.050 10000.000 0.000 -1.505
97 291.00 1500.00 162 379 2.050 10000.000 0.000 -1.505
98 294.00 1500.00 188 410 2.050 10000.000 0.000 -1.505
99 297.00 1500.00 166 425 2.050 10000.000 0.000 -1.505
100 300.00 1500.00 196 409 2.050 10000.000 0.000 -1.505
101 303.00 1500.00 188 354 2.050 10000.000 0.000 -1.505
102 306.00 1500.00 174 362 2.050 10000.000 0.000 -1.505
103 309.00 1500.00 153 333 2.050 10000.000 0.000 -1.505
104 312.00 1500.00 156 261 2.050 10000.000 0.000 -1.505
105 315.00 1500.00 154 250 2.050 10000.000 0.000 -1.505
106 318.00 1500.00 145 200 2.050 10000.000 0.000 -1.505
107 321.00 1500.00 147 173 2.050 10000.000 0.000 -1.505
108 324.00 1500.00 186 203 2.050 10000.000 0.000 -1.505
109 327.00 1500.00 168 201 2.050 10000.000 0.000 -1.505
110 330.00 1500.00 177 220 2.050 10000.000 0.000 -1.505
111 333.00 1500.00 180 233 2.050 10000.000 0.000 -1.505
112 336.00 1500.00 199 272 2.050 10000.000 0.000 -1.505
113 339.00 1500.00 180 283 2.050 10000.000 0.000 -1.505
114 342.00 1500.00 227 295 2.050 10000.000 0.000 -1.505
115 345.00 1500.00 187 313 2.050 10000.000 0.000 -1.505
116 348.00 1500.00 184 276 2.050 10000.000 0.000 -1.505
117 351.00 1500.00 195 260 2.050 10000.000 0.000 -1.505
118 354.00 1500.00 186 272 2.050 10000.000 0.000 -1.505
119 357.00 1500.00 185 220 2.050 10000.000 0.000 -1.505
120 360.00 1500.00 199 233 2.050 10000.000 0.000 -1.505
121 363.00 1500.00 198 189 2.050 10000.000 0.000 -1.505
122 366.00 1500.00 198 203 2.050 10000.000 0.000 -1.505
123 369.00 1500.00 169 174 2.050 10000.000 0.000 -1.505
124 372.00 1500.00 177 187 2.050 10000.000 0.000 -1.505
125 375.00 1500.00 175 204 2.050 10000.000 0.000 -1.505
126 378.00 1500.00 190 248 2.050 10000.000 0.000 -1.505
127 381.00 1500.00 157 293 2.050 10000.000 0.000 -1.505
128 384.00 1500.00 170 296 2.050 10000.000 0.000 -1.505
129 387.00 1500.00 166 352 2.050 10000.000 0.000 -1.505
130 390.00 1500.00 151 359 2.050 10000.000 0.000 -1.505
131 393.00 1500.00 202 364 2.050 10000.000 0.000 -1.505
132 396.00 1500.00 184 395 2.050 10000.000 0.000 -1.505
133 399.00 1500.00 182 392 2.050 10000.000 0.000 -1.505
134 402.00 1500.00 179 343 2.050 10000.000 0.000 -1.505
