# BinNR microsec tot-time (s)  O-Beam AUX Ampl(V) f(Hz) phase(deg) chi(pos)
0 0.00 1500.01 146 236 2.050 10000.000 0.000 0.000
1 3.00 1500.01 312 452 2.050 10000.000 0.000 0.000
2 6.00 1500.01 277 514 2.050 10000.000 0.000 0.000
3 9.00 1500.01 308 574 2.050 10000.000 0.000 0.000
4 12.00 1500.01 355 655 2.050 10000.000 0.000 0.000
5 15.00 1500.01 335 761 2.050 10000.000 0.000 0.000
6 18.00 1500.01 359 835 2.050 10000.000 0.000 0.000
7 21.00 1500.01 384 946 2.050 10000.000 0.000 0.000
8 24.00 1500.01 406 1015 2.050 10000.000 0.000 0.000
9 27.00 1500.01 445 1060 2.050 10000.000 0.000 0.000
10 30.00 1500.01 412 1147 2.050 10000.000 0.000 0.000
11 33.00 1500.01 457 1157 2.050 10000.000 0.000 0.000
12 36.00 1500.01 448 1179 2.050 10000.000 0.000 0.000
13 39.00 1500.01 445 1099 2.050 10000.000 0.000 0.000
14 42.00 1500.01 419 1100 2.050 10000.000 0.000 0.000
15 45.00 1500.01 463 1140 2.050 10000.000 0.000 0.000
16 48.00 1500.01 430 1134 2.050 10000.000 0.000 0.000
17 51.00 1500.01 437 1144 2.050 10000.000 0.000 0.000
18 54.00 1500.01 425 1121 2.050 10000.000 0.000 0.000
19 57.00 1500.01 400 1087 2.050 10000.000 0.000 0.000
20 60.00 1500.01 398 1141 2.050 10000.000 0.000 0.000
21 63.00 1500.01 364 1029 2.050 10000.000 0.000 0.000
22 66.00 1500.01 366 957 2.050 10000.000 0.000 0.000
23 69.00 1500.01 323 963 2.050 10000.000 0.000 0.000
24 72.00 1500.01 337 817 2.050 10000.000 0.000 0.000
25 75.00 1500.01 320 764 2.050 10000.000 0.000 0.000
26 78.00 1500.01 325 615 2.050 10000.000 0.000 0.000
27 81.00 1500.01 283 595 2.050 10000.000 0.000 0.000
28 84.00 1500.01 284 463 2.050 10000.000 0.000 0.000
29 87.00 1500.01 262 469 2.050 10000.000 0.000 0.000
30 90.00 1500.01 282 446 2.050 10000.000 0.000 0.000
31 93.00 1500.01 271 399 2.050 10000.000 0.000 0.000
32 96.00 1500.01 290 460 2.050 10000.000 0.000 0.000
33 99.00 1500.01 273 390 2.050 10000.000 0.000 0.000
34 102.00 1500.01 277 417 2.050 10000.000 0.000 0.000
35 105.00 1500.01 276 436 2.050 10000.000 0.000 0.000
36 108.00 1500.01 294 512 2.050 10000.000 0.000 0.000
37 111.00 1500.01 319 551 2.050 10000.000 0.000 0.000
38 114.00 1500.01 348 575 2.050 10000.000 0.000 0.000
39 117.00 1500.01 364 692 2.050 10000.000 0.000 0.000
40 120.00 1500.01 358 764 2.050 10000.000 0.000 0.000
41 123.00 1500.01 408 800 2.050 10000.000 0.000 0.000
42 126.00 1500.01 421 960 2.050 10000.000 0.000 0.000
43 129.00 1500.01 432 1047 2.050 10000.000 0.000 0.000
44 132.00 1500.01 449 1116 2.050 10000.000 0.000 0.000
45 135.00 1500.01 444 1110 2.050 10000.000 0.000 0.000
46 138.00 1500.01 423 1186 2.050 10000.000 0.000 0.000
47 141.00 1500.01 435 1216 2.050 10000.000 0.000 0.000
48 144.00 1500.01 456 1255 2.050 10000.000 0.000 0.000
49 147.00 1500.01 419 1239 2.050 10000.000 0.000 0.000
50 150.00 1500.01 411 1246 2.050 10000.000 0.000 0.000
51 153.00 1500.01 414 1258 2.050 10000.000 0.000 0.000
52 156.00 1500.01 460 1138 2.050 10000.000 0.000 0.000
53 159.00 1500.01 378 1089 2.050 10000.000 0.000 0.000
54 162.00 1500.01 424 1070 2.050 10000.000 0.000 0.000
55 165.00 1500.01 406 979 2.050 10000.000 0.000 0.000
56 168.00 1500.01 363 931 2.050 10000.000 0.000 0.000
57 171.00 1500.01 349 792 2.050 10000.000 0.000 0.000
58 174.00 1500.01 355 768 2.050 10000.000 0.000 0.000
59 177.00 1500.01 294 647 2.050 10000.000 0.000 0.000
60 180.00 1500.01 300 561 2.050 10000.000 0.000 0.000
61 183.00 1500.01 327 537 2.050 10000.000 0.000 0.000
62 186.00 1500.01 280 460 2.050 10000.000 0.000 0.000
63 189.00 1500.01 256 397 2.050 10000.000 0.000 0.000
64 192.00 1500.01 278 387 2.050 10000.000 0.000 0.000
65 195.00 1500.01 260 375 2.050 10000.000 0.000 0.000
66 198.00 1500.01 285 401 2.050 10000.000 0.000 0.000
67 201.00 1500.01 294 422 2.050 10000.000 0.000 0.000
68 204.00 1500.01 274 420 2.050 10000.000 0.000 0.000
69 207.00 1500.01 307 472 2.050 10000.000 0.000 0.000
70 210.00 1500.01 323 608 2.050 10000.000 0.000 0.000
71 213.00 1500.01 357 571 2.050 10000.000 0.000 0.000
72 216.00 1500.01 375 676 2.050 10000.000 0.000 0.000
73 219.00 1500.01 372 767 2.050 10000.000 0.000 0.000
74 222.00 1500.01 380 825 2.050 10000.000 0.000 0.000
75 225.00 1500.01 396 930 2.050 10000.000 0.000 0.000
76 228.00 1500.01 426 990 2.050 10000.000 0.000 0.000
77 231.00 1500.01 415 1101 2.050 10000.000 0.000 0.000
78 234.00 1500.01 458 1109 2.050 10000.000 0.000 0.000
79 237.00 1500.01 415 1155 2.050 10000.000 0.000 0.000
80 240.00 1500.01 457 1243 2.050 10000.000 0.000 0.000
81 243.00 1500.01 451 1211 2.050 10000.000 0.000 0.000
82 246.00 1500.01 468 1235 2.050 10000.000 0.000 0.000
83 249.00 1500.01 432 1180 2.050 10000.000 0.000 0.000
84 252.00 1500.01 421 1200 2.050 10000.000 0.000 0.000
85 255.00 1500.01 430 1193 2.050 10000.000 0.000 0.000
86 258.00 1500.01 403 1223 2.050 10000.000 0.000 0.000
87 261.00 1500.01 425 1091 2.050 10000.000 0.000 0.000
88 264.00 1500.01 356 995 2.050 10000.000 0.000 0.000
89 267.00 1500.01 380 948 2.050 10000.000 0.000 0.000
90 270.00 1500.01 358 871 2.050 10000.000 0.000 0.000
91 273.00 1500.01 296 808 2.050 10000.000 0.000 0.000
92 276.00 1500.01 317 680 2.050 10000.000 0.000 0.000
93 279.00 1500.01 313 609 2.050 10000.000 0.000 0.000
94 282.00 1500.01 291 542 2.050 10000.000 0.000 0.000
95 285.00 1500.01 272 463 2.050 10000.000 0.000 0.000
96 288.00 1500.01 285 467 2.050 10000.000 0.000 0.000
97 291.00 1500.01 268 467 2.050 10000.000 0.000 0.000
98 294.00 1500.01 270 401 2.050 10000.000 0.000 0.000
99 297.00 1500.01 268 410 2.050 10000.000 0.000 0.000
100 300.00 1500.01 284 404 2.050 10000.000 0.000 0.000
101 303.00 1500.01 298 451 2.050 10000.000 0.000 0.000
102 306.00 1500.01 328 497 2.050 10000.000 0.000 0.000
103 309.00 1500.01 295 498 2.050 10000.000 0.000 0.000
104 312.00 1500.01 349 562 2.050 10000.000 0.000 0.000
105 315.00 1500.01 353 600 2.050 10000.000 0.000 0.000
106 318.00 1500.01 393 755 2.050 10000.000 0.000 0.000
107 321.00 1500.01 397 768 2.050 10000.000 0.000 0.000
108 324.00 1500.01 401 896 2.050 10000.000 0.000 0.000
109 327.00 1500.01 414 972 2.050 10000.000 0.000 0.000
110 330.00 1500.01 465 984 2.050 10000.000 0.000 0.000
111 333.00 1500.01 424 1085 2.050 10000.000 0.000 0.000
112 336.00 1500.01 428 1176 2.050 10000.000 0.000 0.000
113 339.00 1500.01 423 1230 2.050 10000.000 0.000 0.000
114 342.00 1500.01 424 1234 2.050 10000.000 0.000 0.000
115 345.00 1500.01 455 1254 2.050 10000.000 0.000 0.000
116 348.00 1500.01 463 1232 2.050 10000.000 0.000 0.000
117 351.00 1500.01 426 1262 2.050 10000.000 0.000 0.000
118 354.00 1500.01 428 1260 2.050 10000.000 0.000 0.000
119 357.00 1500.01 403 1183 2.050 10000.000 0.000 0.000
120 360.00 1500.01 395 1130 2.050 10000.000 0.000 0.000
121 363.00 1500.01 413 1050 2.050 10000.000 0.000 0.000
122 366.00 1500.01 368 954 2.050 10000.000 0.000 0.000
123 369.00 1500.01 402 865 2.050 10000.000 0.000 0.000
124 372.00 1500.01 356 802 2.050 10000.000 0.000 0.000
125 375.00 1500.01 315 672 2.050 10000.000 0.000 0.000
126 378.00 1500.01 346 605 2.050 10000.000 0.000 0.000
127 381.00 1500.01 323 561 2.050 10000.000 0.000 0.000
128 384.00 1500.01 303 482 2.050 10000.000 0.000 0.000
129 387.00 1500.01 327 424 2.050 10000.000 0.000 0.000
130 390.00 1500.01 322 421 2.050 10000.000 0.000 0.000
131 393.00 1500.01 258 402 2.050 10000.000 0.000 0.000
132 396.00 1500.01 278 437 2.050 10000.000 0.000 0.000
133 399.00 1500.01 268 439 2.050 10000.000 0.000 0.000
134 402.00 1500.01 279 397 2.050 10000.000 0.000 0.000
