# BinNR microsec tot-time (s)  O-Beam AUX Ampl(V) f(Hz) phase(deg) chi(pos)
0 0.00 1500.00 221 720 2.050 10000.000 0.000 -0.835
1 3.00 1500.00 476 1453 2.050 10000.000 0.000 -0.835
2 6.00 1500.00 446 1396 2.050 10000.000 0.000 -0.835
3 9.00 1500.00 447 1428 2.050 10000.000 0.000 -0.835
4 12.00 1500.00 404 1403 2.050 10000.000 0.000 -0.835
5 15.00 1500.00 401 1304 2.050 10000.000 0.000 -0.835
6 18.00 1500.00 389 1262 2.050 10000.000 0.000 -0.835
7 21.00 1500.00 378 1173 2.050 10000.000 0.000 -0.835
8 24.00 1500.00 341 1115 2.050 10000.000 0.000 -0.835
9 27.00 1500.00 313 984 2.050 10000.000 0.000 -0.835
10 30.00 1500.00 290 935 2.050 10000.000 0.000 -0.835
11 33.00 1500.00 276 912 2.050 10000.000 0.000 -0.835
12 36.00 1500.00 303 914 2.050 10000.000 0.000 -0.835
13 39.00 1500.00 278 870 2.050 10000.000 0.000 -0.835
14 42.00 1500.00 293 981 2.050 10000.000 0.000 -0.835
15 45.00 1500.00 260 911 2.050 10000.000 0.000 -0.835
16 48.00 1500.00 263 928 2.050 10000.000 0.000 -0.835
17 51.00 1500.00 263 985 2.050 10000.000 0.000 -0.835
18 54.00 1500.00 287 999 2.050 10000.000 0.000 -0.835
19 57.00 1500.00 310 910 2.050 10000.000 0.000 -0.835
20 60.00 1500.00 314 1039 2.050 10000.000 0.000 -0.835
21 63.00 1500.00 344 1050 2.050 10000.000 0.000 -0.835
22 66.00 1500.00 345 1199 2.050 10000.000 0.000 -0.835
23 69.00 1500.00 373 1238 2.050 10000.000 0.000 -0.835
24 72.00 1500.00 361 1276 2.050 10000.000 0.000 -0.835
25 75.00 1500.00 408 1338 2.050 10000.000 0.000 -0.835
26 78.00 1500.00 418 1374 2.050 10000.000 0.000 -0.835
27 81.00 1500.00 365 1439 2.050 10000.000 0.000 -0.835
28 84.00 1500.00 375 1476 2.050 10000.000 0.000 -0.835
29 87.00 1500.00 421 1480 2.050 10000.000 0.000 -0.835
30 90.00 1500.00 432 1528 2.050 10000.000 0.000 -0.835
31 93.00 1500.00 438 1467 2.050 10000.000 0.000 -0.835
32 96.00 1500.00 451 1467 2.050 10000.000 0.000 -0.835
33 99.00 1500.00 403 1463 2.050 10000.000 0.000 -0.835
34 102.00 1500.00 438 1468 2.050 10000.000 0.000 -0.835
35 105.00 1500.00 404 1513 2.050 10000.000 0.000 -0.835
36 108.00 1500.00 392 1552 2.050 10000.000 0.000 -0.835
37 111.00 1500.00 390 1409 2.050 10000.000 0.000 -0.835
38 114.00 1500.00 388 1476 2.050 10000.000 0.000 -0.835
39 117.00 1500.00 351 1310 2.050 10000.000 0.000 -0.835
40 120.00 1500.00 365 1271 2.050 10000.000 0.000 -0.835
41 123.00 1500.00 306 1214 2.050 10000.000 0.000 -0.835
42 126.00 1500.00 339 1168 2.050 10000.000 0.000 -0.835
43 129.00 1500.00 275 1062 2.050 10000.000 0.000 -0.835
44 132.00 1500.00 287 977 2.050 10000.000 0.000 -0.835
45 135.00 1500.00 286 908 2.050 10000.000 0.000 -0.835
46 138.00 1500.00 295 909 2.050 10000.000 0.000 -0.835
47 141.00 1500.00 290 807 2.050 10000.000 0.000 -0.835
48 144.00 1500.00 276 826 2.050 10000.000 0.000 -0.835
49 147.00 1500.00 253 843 2.050 10000.000 0.000 -0.835
50 150.00 1500.00 311 853 2.050 10000.000 0.000 -0.835
51 153.00 1500.00 269 830 2.050 10000.000 0.000 -0.835
52 156.00 1500.00 319 919 2.050 10000.000 0.000 -0.835
53 159.00 1500.00 285 908 2.050 10000.000 0.000 -0.835
54 162.00 1500.00 341 1032 2.050 10000.000 0.000 -0.835
55 165.00 1500.00 366 1091 2.050 10000.000 0.000 -0.835
56 168.00 1500.00 370 1188 2.050 10000.000 0.000 -0.835
57 171.00 1500.00 377 1257 2.050 10000.000 0.000 -0.835
58 174.00 1500.00 375 1281 2.050 10000.000 0.000 -0.835
59 177.00 1500.00 423 1291 2.050 10000.000 0.000 -0.835
60 180.00 1500.00 384 1417 2.050 10000.000 0.000 -0.835
61 183.00 1500.00 397 1467 2.050 10000.000 0.000 -0.835
62 186.00 1500.00 454 1518 2.050 10000.000 0.000 -0.835
63 189.00 1500.00 410 1463 2.050 10000.000 0.000 -0.835
64 192.00 1500.00 440 1552 2.050 10000.000 0.000 -0.835
65 195.00 1500.00 429 1518 2.050 10000.000 0.000 -0.835
66 198.00 1500.00 422 1545 2.050 10000.000 0.000 -0.835
67 201.00 1500.00 441 1480 2.050 10000.000 0.000 -0.835
68 204.00 1500.00 438 1500 2.050 10000.000 0.000 -0.835
69 207.00 1500.00 417 1399 2.050 10000.000 0.000 -0.835
70 210.00 1500.00 405 1442 2.050 10000.000 0.000 -0.835
71 213.00 1500.00 394 1415 2.050 10000.000 0.000 -0.835
72 216.00 1500.00 382 1422 2.050 10000.000 0.000 -0.835
73 219.00 1500.00 357 1292 2.050 10000.000 0.000 -0.835
74 222.00 1500.00 296 1217 2.050 10000.000 0.000 -0.835
75 225.00 1500.00 316 1200 2.050 10000.000 0.000 -0.835
76 228.00 1500.00 318 1063 2.050 10000.000 0.000 -0.835
77 231.00 1500.00 309 974 2.050 10000.000 0.000 -0.835
78 234.00 1500.00 326 1040 2.050 10000.000 0.000 -0.835
79 237.00 1500.00 267 900 2.050 10000.000 0.000 -0.835
80 240.00 1500.00 288 849 2.050 10000.000 0.000 -0.835
81 243.00 1500.00 260 858 2.050 10000.000 0.000 -0.835
82 246.00 1500.00 252 813 2.050 10000.000 0.000 -0.835
83 249.00 1500.00 286 823 2.050 10000.000 0.000 -0.835
84 252.00 1500.00 293 847 2.050 10000.000 0.000 -0.835
85 255.00 1500.00 300 857 2.050 10000.000 0.000 -0.835
86 258.00 1500.00 325 916 2.050 10000.000 0.000 -0.835
87 261.00 1500.00 312 1043 2.050 10000.000 0.000 -0.835
88 264.00 1500.00 339 1016 2.050 10000.000 0.000 -0.835
89 267.00 1500.00 344 1153 2.050 10000.000 0.000 -0.835
90 270.00 1500.00 332 1165 2.050 10000.000 0.000 -0.835
91 273.00 1500.00 407 1310 2.050 10000.000 0.000 -0.835
92 276.00 1500.00 397 1317 2.050 10000.000 0.000 -0.835
93 279.00 1500.00 373 1370 2.050 10000.000 0.000 -0.835
94 282.00 1500.00 426 1405 2.050 10000.000 0.000 -0.835
95 285.00 1500.00 384 1481 2.050 10000.000 0.000 -0.835
96 288.00 1500.00 480 1545 2.050 10000.000 0.000 -0.835
97 291.00 1500.00 439 1505 2.050 10000.000 0.000 -0.835
98 294.00 1500.00 435 1480 2.050 10000.000 0.000 -0.835
99 297.00 1500.00 443 1552 2.050 10000.000 0.000 -0.835
100 300.00 1500.00 462 1536 2.050 10000.000 0.000 -0.835
101 303.00 1500.00 421 1532 2.050 10000.000 0.000 -0.835
102 306.00 1500.00 466 1458 2.050 10000.000 0.000 -0.835
103 309.00 1500.00 380 1432 2.050 10000.000 0.000 -0.835
104 312.00 1500.00 419 1429 2.050 10000.000 0.000 -0.835
105 315.00 1500.00 342 1418 2.050 10000.000 0.000 -0.835
106 318.00 1500.00 336 1402 2.050 10000.000 0.000 -0.835
107 321.00 1500.00 326 1296 2.050 10000.000 0.000 -0.835
108 324.00 1500.00 348 1218 2.050 10000.000 0.000 -0.835
109 327.00 1500.00 270 1093 2.050 10000.000 0.000 -0.835
110 330.00 1500.00 295 1043 2.050 10000.000 0.000 -0.835
111 333.00 1500.00 300 929 2.050 10000.000 0.000 -0.835
112 336.00 1500.00 286 989 2.050 10000.000 0.000 -0.835
113 339.00 1500.00 264 867 2.050 10000.000 0.000 -0.835
114 342.00 1500.00 283 838 2.050 10000.000 0.000 -0.835
115 345.00 1500.00 268 862 2.050 10000.000 0.000 -0.835
116 348.00 1500.00 319 828 2.050 10000.000 0.000 -0.835
117 351.00 1500.00 289 854 2.050 10000.000 0.000 -0.835
118 354.00 1500.00 293 802 2.050 10000.000 0.000 -0.835
119 357.00 1500.00 283 941 2.050 10000.000 0.000 -0.835
120 360.00 1500.00 324 1012 2.050 10000.000 0.000 -0.835
121 363.00 1500.00 325 1031 2.050 10000.000 0.000 -0.835
122 366.00 1500.00 321 1096 2.050 10000.000 0.000 -0.835
123 369.00 1500.00 335 1136 2.050 10000.000 0.000 -0.835
124 372.00 1500.00 361 1289 2.050 10000.000 0.000 -0.835
125 375.00 1500.00 374 1300 2.050 10000.000 0.000 -0.835
126 378.00 1500.00 371 1429 2.050 10000.000 0.000 -0.835
127 381.00 1500.00 425 1377 2.050 10000.000 0.000 -0.835
128 384.00 1500.00 433 1510 2.050 10000.000 0.000 -0.835
129 387.00 1500.00 404 1406 2.050 10000.000 0.000 -0.835
130 390.00 1500.00 441 1492 2.050 10000.000 0.000 -0.835
131 393.00 1500.00 416 1452 2.050 10000.000 0.000 -0.835
132 396.00 1500.00 451 1493 2.050 10000.000 0.000 -0.835
133 399.00 1500.00 441 1517 2.050 10000.000 0.000 -0.835
134 402.00 1500.00 456 1436 2.050 10000.000 0.000 -0.835
