# BinNR microsec tot-time (s)  O-Beam AUX Ampl(V) f(Hz) phase(deg) chi(pos)
0 0.00 1500.02 238 558 2.050 10000.000 0.000 -0.319
1 3.00 1500.02 451 1113 2.050 10000.000 0.000 -0.319
2 6.00 1500.02 457 1159 2.050 10000.000 0.000 -0.319
3 9.00 1500.02 434 1184 2.050 10000.000 0.000 -0.319
4 12.00 1500.02 468 1264 2.050 10000.000 0.000 -0.319
5 15.00 1500.02 514 1237 2.050 10000.000 0.000 -0.319
6 18.00 1500.02 482 1348 2.050 10000.000 0.000 -0.319
7 21.00 1500.02 509 1483 2.050 10000.000 0.000 -0.319
8 24.00 1500.02 487 1492 2.050 10000.000 0.000 -0.319
9 27.00 1500.02 479 1481 2.050 10000.000 0.000 -0.319
10 30.00 1500.02 457 1598 2.050 10000.000 0.000 -0.319
11 33.00 1500.02 478 1472 2.050 10000.000 0.000 -0.319
12 36.00 1500.02 448 1615 2.050 10000.000 0.000 -0.319
13 39.00 1500.02 485 1551 2.050 10000.000 0.000 -0.319
14 42.00 1500.02 477 1440 2.050 10000.000 0.000 -0.319
15 45.00 1500.02 444 1491 2.050 10000.000 0.000 -0.319
16 48.00 1500.02 441 1563 2.050 10000.000 0.000 -0.319
17 51.00 1500.02 469 1472 2.050 10000.000 0.000 -0.319
18 54.00 1500.02 479 1607 2.050 10000.000 0.000 -0.319
19 57.00 1500.02 483 1511 2.050 10000.000 0.000 -0.319
20 60.00 1500.02 468 1433 2.050 10000.000 0.000 -0.319
21 63.00 1500.02 445 1477 2.050 10000.000 0.000 -0.319
22 66.00 1500.02 466 1441 2.050 10000.000 0.000 -0.319
23 69.00 1500.02 466 1396 2.050 10000.000 0.000 -0.319
24 72.00 1500.02 445 1379 2.050 10000.000 0.000 -0.319
25 75.00 1500.02 485 1323 2.050 10000.000 0.000 -0.319
26 78.00 1500.02 453 1270 2.050 10000.000 0.000 -0.319
27 81.00 1500.02 465 1147 2.050 10000.000 0.000 -0.319
28 84.00 1500.02 420 1112 2.050 10000.000 0.000 -0.319
29 87.00 1500.02 454 1070 2.050 10000.000 0.000 -0.319
30 90.00 1500.02 429 1037 2.050 10000.000 0.000 -0.319
31 93.00 1500.02 400 998 2.050 10000.000 0.000 -0.319
32 96.00 1500.02 422 970 2.050 10000.000 0.000 -0.319
33 99.00 1500.02 376 1006 2.050 10000.000 0.000 -0.319
34 102.00 1500.02 412 1071 2.050 10000.000 0.000 -0.319
35 105.00 1500.02 418 1032 2.050 10000.000 0.000 -0.319
36 108.00 1500.02 460 1092 2.050 10000.000 0.000 -0.319
37 111.00 1500.02 457 1149 2.050 10000.000 0.000 -0.319
38 114.00 1500.02 465 1241 2.050 10000.000 0.000 -0.319
39 117.00 1500.02 478 1273 2.050 10000.000 0.000 -0.319
40 120.00 1500.02 484 1382 2.050 10000.000 0.000 -0.319
41 123.00 1500.02 491 1323 2.050 10000.000 0.000 -0.319
42 126.00 1500.02 492 1451 2.050 10000.000 0.000 -0.319
43 129.00 1500.02 490 1401 2.050 10000.000 0.000 -0.319
44 132.00 1500.02 475 1575 2.050 10000.000 0.000 -0.319
45 135.00 1500.02 467 1497 2.050 10000.000 0.000 -0.319
46 138.00 1500.02 459 1535 2.050 10000.000 0.000 -0.319
47 141.00 1500.02 471 1528 2.050 10000.000 0.000 -0.319
48 144.00 1500.02 461 1572 2.050 10000.000 0.000 -0.319
49 147.00 1500.02 490 1443 2.050 10000.000 0.000 -0.319
50 150.00 1500.02 487 1539 2.050 10000.000 0.000 -0.319
51 153.00 1500.02 442 1541 2.050 10000.000 0.000 -0.319
52 156.00 1500.02 463 1564 2.050 10000.000 0.000 -0.319
53 159.00 1500.02 473 1429 2.050 10000.000 0.000 -0.319
54 162.00 1500.02 501 1604 2.050 10000.000 0.000 -0.319
55 165.00 1500.02 476 1451 2.050 10000.000 0.000 -0.319
56 168.00 1500.02 445 1451 2.050 10000.000 0.000 -0.319
57 171.00 1500.02 457 1439 2.050 10000.000 0.000 -0.319
58 174.00 1500.02 493 1358 2.050 10000.000 0.000 -0.319
59 177.00 1500.02 463 1217 2.050 10000.000 0.000 -0.319
60 180.00 1500.02 409 1215 2.050 10000.000 0.000 -0.319
61 183.00 1500.02 431 1092 2.050 10000.000 0.000 -0.319
62 186.00 1500.02 398 1105 2.050 10000.000 0.000 -0.319
63 189.00 1500.02 406 999 2.050 10000.000 0.000 -0.319
64 192.00 1500.02 418 1016 2.050 10000.000 0.000 -0.319
65 195.00 1500.02 416 971 2.050 10000.000 0.000 -0.319
66 198.00 1500.02 384 1001 2.050 10000.000 0.000 -0.319
67 201.00 1500.02 409 1031 2.050 10000.000 0.000 -0.319
68 204.00 1500.02 451 1002 2.050 10000.000 0.000 -0.319
69 207.00 1500.02 412 1115 2.050 10000.000 0.000 -0.319
70 210.00 1500.02 424 1118 2.050 10000.000 0.000 -0.319
71 213.00 1500.02 428 1211 2.050 10000.000 0.000 -0.319
72 216.00 1500.02 472 1179 2.050 10000.000 0.000 -0.319
73 219.00 1500.02 485 1294 2.050 10000.000 0.000 -0.319
74 222.00 1500.02 468 1331 2.050 10000.000 0.000 -0.319
75 225.00 1500.02 473 1421 2.050 10000.000 0.000 -0.319
76 228.00 1500.02 491 1407 2.050 10000.000 0.000 -0.319
77 231.00 1500.02 461 1427 2.050 10000.000 0.000 -0.319
78 234.00 1500.02 525 1520 2.050 10000.000 0.000 -0.319
79 237.00 1500.02 494 1482 2.050 10000.000 0.000 -0.319
80 240.00 1500.02 460 1531 2.050 10000.000 0.000 -0.319
81 243.00 1500.02 459 1534 2.050 10000.000 0.000 -0.319
82 246.00 1500.02 471 1573 2.050 10000.000 0.000 -0.319
83 249.00 1500.02 434 1496 2.050 10000.000 0.000 -0.319
84 252.00 1500.02 470 1559 2.050 10000.000 0.000 -0.319
85 255.00 1500.02 471 1491 2.050 10000.000 0.000 -0.319
86 258.00 1500.02 443 1473 2.050 10000.000 0.000 -0.319
87 261.00 1500.02 468 1517 2.050 10000.000 0.000 -0.319
88 264.00 1500.02 455 1544 2.050 10000.000 0.000 -0.319
89 267.00 1500.02 440 1501 2.050 10000.000 0.000 -0.319
90 270.00 1500.02 460 1441 2.050 10000.000 0.000 -0.319
91 273.00 1500.02 455 1401 2.050 10000.000 0.000 -0.319
92 276.00 1500.02 434 1264 2.050 10000.000 0.000 -0.319
93 279.00 1500.02 440 1224 2.050 10000.000 0.000 -0.319
94 282.00 1500.02 412 1232 2.050 10000.000 0.000 -0.319
95 285.00 1500.02 425 1108 2.050 10000.000 0.000 -0.319
96 288.00 1500.02 383 1022 2.050 10000.000 0.000 -0.319
97 291.00 1500.02 429 1052 2.050 10000.000 0.000 -0.319
98 294.00 1500.02 413 986 2.050 10000.000 0.000 -0.319
99 297.00 1500.02 422 984 2.050 10000.000 0.000 -0.319
100 300.00 1500.02 443 980 2.050 10000.000 0.000 -0.319
101 303.00 1500.02 400 983 2.050 10000.000 0.000 -0.319
102 306.00 1500.02 425 1071 2.050 10000.000 0.000 -0.319
103 309.00 1500.02 441 1041 2.050 10000.000 0.000 -0.319
104 312.00 1500.02 445 1114 2.050 10000.000 0.000 -0.319
105 315.00 1500.02 473 1221 2.050 10000.000 0.000 -0.319
106 318.00 1500.02 477 1300 2.050 10000.000 0.000 -0.319
107 321.00 1500.02 482 1254 2.050 10000.000 0.000 -0.319
108 324.00 1500.02 476 1373 2.050 10000.000 0.000 -0.319
109 327.00 1500.02 503 1437 2.050 10000.000 0.000 -0.319
110 330.00 1500.02 505 1438 2.050 10000.000 0.000 -0.319
111 333.00 1500.02 472 1520 2.050 10000.000 0.000 -0.319
112 336.00 1500.02 481 1481 2.050 10000.000 0.000 -0.319
113 339.00 1500.02 471 1538 2.050 10000.000 0.000 -0.319
114 342.00 1500.02 454 1513 2.050 10000.000 0.000 -0.319
115 345.00 1500.02 470 1536 2.050 10000.000 0.000 -0.319
116 348.00 1500.02 487 1530 2.050 10000.000 0.000 -0.319
117 351.00 1500.02 499 1568 2.050 10000.000 0.000 -0.319
118 354.00 1500.02 485 1506 2.050 10000.000 0.000 -0.319
119 357.00 1500.02 462 1467 2.050 10000.000 0.000 -0.319
120 360.00 1500.02 478 1466 2.050 10000.000 0.000 -0.319
121 363.00 1500.02 493 1505 2.050 10000.000 0.000 -0.319
122 366.00 1500.02 452 1509 2.050 10000.000 0.000 -0.319
123 369.00 1500.02 448 1479 2.050 10000.000 0.000 -0.319
124 372.00 1500.02 447 1409 2.050 10000.000 0.000 -0.319
125 375.00 1500.02 473 1334 2.050 10000.000 0.000 -0.319
126 378.00 1500.02 458 1245 2.050 10000.000 0.000 -0.319
127 381.00 1500.02 454 1111 2.050 10000.000 0.000 -0.319
128 384.00 1500.02 416 1119 2.050 10000.000 0.000 -0.319
129 387.00 1500.02 418 1057 2.050 10000.000 0.000 -0.319
130 390.00 1500.02 429 1043 2.050 10000.000 0.000 -0.319
131 393.00 1500.02 384 1027 2.050 10000.000 0.000 -0.319
132 396.00 1500.02 415 942 2.050 10000.000 0.000 -0.319
133 399.00 1500.02 415 1030 2.050 10000.000 0.000 -0.319
134 402.00 1500.02 425 1063 2.050 10000.000 0.000 -0.319
