# BinNR microsec tot-time (s)  O-Beam AUX Ampl(V) f(Hz) phase(deg) chi(pos)
0 0.00 1500.01 227 702 2.050 10000.000 0.000 -0.505
1 3.00 1500.01 504 1393 2.050 10000.000 0.000 -0.505
2 6.00 1500.01 460 1379 2.050 10000.000 0.000 -0.505
3 9.00 1500.01 438 1503 2.050 10000.000 0.000 -0.505
4 12.00 1500.01 498 1475 2.050 10000.000 0.000 -0.505
5 15.00 1500.01 472 1471 2.050 10000.000 0.000 -0.505
6 18.00 1500.01 483 1486 2.050 10000.000 0.000 -0.505
7 21.00 1500.01 457 1471 2.050 10000.000 0.000 -0.505
8 24.00 1500.01 482 1485 2.050 10000.000 0.000 -0.505
9 27.00 1500.01 433 1462 2.050 10000.000 0.000 -0.505
10 30.00 1500.01 463 1572 2.050 10000.000 0.000 -0.505
11 33.00 1500.01 451 1505 2.050 10000.000 0.000 -0.505
12 36.00 1500.01 444 1468 2.050 10000.000 0.000 -0.505
13 39.00 1500.01 425 1387 2.050 10000.000 0.000 -0.505
14 42.00 1500.01 427 1442 2.050 10000.000 0.000 -0.505
15 45.00 1500.01 389 1502 2.050 10000.000 0.000 -0.505
16 48.00 1500.01 408 1467 2.050 10000.000 0.000 -0.505
17 51.00 1500.01 416 1403 2.050 10000.000 0.000 -0.505
18 54.00 1500.01 410 1425 2.050 10000.000 0.000 -0.505
19 57.00 1500.01 410 1501 2.050 10000.000 0.000 -0.505
20 60.00 1500.01 472 1536 2.050 10000.000 0.000 -0.505
21 63.00 1500.01 441 1562 2.050 10000.000 0.000 -0.505
22 66.00 1500.01 425 1533 2.050 10000.000 0.000 -0.505
23 69.00 1500.01 446 1478 2.050 10000.000 0.000 -0.505
24 72.00 1500.01 451 1565 2.050 10000.000 0.000 -0.505
25 75.00 1500.01 471 1450 2.050 10000.000 0.000 -0.505
26 78.00 1500.01 491 1484 2.050 10000.000 0.000 -0.505
27 81.00 1500.01 476 1397 2.050 10000.000 0.000 -0.505
28 84.00 1500.01 479 1423 2.050 10000.000 0.000 -0.505
29 87.00 1500.01 443 1331 2.050 10000.000 0.000 -0.505
30 90.00 1500.01 457 1318 2.050 10000.000 0.000 -0.505
31 93.00 1500.01 454 1413 2.050 10000.000 0.000 -0.505
32 96.00 1500.01 509 1373 2.050 10000.000 0.000 -0.505
33 99.00 1500.01 485 1335 2.050 10000.000 0.000 -0.505
34 102.00 1500.01 473 1264 2.050 10000.000 0.000 -0.505
35 105.00 1500.01 471 1383 2.050 10000.000 0.000 -0.505
36 108.00 1500.01 512 1354 2.050 10000.000 0.000 -0.505
37 111.00 1500.01 484 1357 2.050 10000.000 0.000 -0.505
38 114.00 1500.01 460 1539 2.050 10000.000 0.000 -0.505
39 117.00 1500.01 465 1489 2.050 10000.000 0.000 -0.505
40 120.00 1500.01 495 1505 2.050 10000.000 0.000 -0.505
41 123.00 1500.01 495 1542 2.050 10000.000 0.000 -0.505
42 126.00 1500.01 451 1525 2.050 10000.000 0.000 -0.505
43 129.00 1500.01 430 1478 2.050 10000.000 0.000 -0.505
44 132.00 1500.01 449 1462 2.050 10000.000 0.000 -0.505
45 135.00 1500.01 399 1387 2.050 10000.000 0.000 -0.505
46 138.00 1500.01 441 1429 2.050 10000.000 0.000 -0.505
47 141.00 1500.01 456 1524 2.050 10000.000 0.000 -0.505
48 144.00 1500.01 444 1441 2.050 10000.000 0.000 -0.505
49 147.00 1500.01 427 1455 2.050 10000.000 0.000 -0.505
50 150.00 1500.01 444 1427 2.050 10000.000 0.000 -0.505
51 153.00 1500.01 437 1447 2.050 10000.000 0.000 -0.505
52 156.00 1500.01 466 1461 2.050 10000.000 0.000 -0.505
53 159.00 1500.01 435 1498 2.050 10000.000 0.000 -0.505
54 162.00 1500.01 476 1524 2.050 10000.000 0.000 -0.505
55 165.00 1500.01 436 1587 2.050 10000.000 0.000 -0.505
56 168.00 1500.01 487 1509 2.050 10000.000 0.000 -0.505
57 171.00 1500.01 476 1518 2.050 10000.000 0.000 -0.505
58 174.00 1500.01 453 1534 2.050 10000.000 0.000 -0.505
59 177.00 1500.01 433 1472 2.050 10000.000 0.000 -0.505
60 180.00 1500.01 451 1432 2.050 10000.000 0.000 -0.505
61 183.00 1500.01 452 1354 2.050 10000.000 0.000 -0.505
62 186.00 1500.01 458 1351 2.050 10000.000 0.000 -0.505
63 189.00 1500.01 485 1283 2.050 10000.000 0.000 -0.505
64 192.00 1500.01 486 1314 2.050 10000.000 0.000 -0.505
65 195.00 1500.01 451 1320 2.050 10000.000 0.000 -0.505
66 198.00 1500.01 492 1305 2.050 10000.000 0.000 -0.505
67 201.00 1500.01 528 1363 2.050 10000.000 0.000 -0.505
68 204.00 1500.01 496 1361 2.050 10000.000 0.000 -0.505
69 207.00 1500.01 477 1354 2.050 10000.000 0.000 -0.505
70 210.00 1500.01 507 1462 2.050 10000.000 0.000 -0.505
71 213.00 1500.01 497 1468 2.050 10000.000 0.000 -0.505
72 216.00 1500.01 484 1468 2.050 10000.000 0.000 -0.505
73 219.00 1500.01 481 1486 2.050 10000.000 0.000 -0.505
74 222.00 1500.01 447 1467 2.050 10000.000 0.000 -0.505
75 225.00 1500.01 465 1464 2.050 10000.000 0.000 -0.505
76 228.00 1500.01 470 1553 2.050 10000.000 0.000 -0.505
77 231.00 1500.01 399 1442 2.050 10000.000 0.000 -0.505
78 234.00 1500.01 469 1456 2.050 10000.000 0.000 -0.505
79 237.00 1500.01 471 1483 2.050 10000.000 0.000 -0.505
80 240.00 1500.01 423 1475 2.050 10000.000 0.000 -0.505
81 243.00 1500.01 413 1436 2.050 10000.000 0.000 -0.505
82 246.00 1500.01 450 1346 2.050 10000.000 0.000 -0.505
83 249.00 1500.01 412 1398 2.050 10000.000 0.000 -0.505
84 252.00 1500.01 414 1411 2.050 10000.000 0.000 -0.505
85 255.00 1500.01 397 1424 2.050 10000.000 0.000 -0.505
86 258.00 1500.01 412 1515 2.050 10000.000 0.000 -0.505
87 261.00 1500.01 419 1486 2.050 10000.000 0.000 -0.505
88 264.00 1500.01 484 1535 2.050 10000.000 0.000 -0.505
89 267.00 1500.01 472 1436 2.050 10000.000 0.000 -0.505
90 270.00 1500.01 458 1572 2.050 10000.000 0.000 -0.505
91 273.00 1500.01 478 1545 2.050 10000.000 0.000 -0.505
92 276.00 1500.01 467 1485 2.050 10000.000 0.000 -0.505
93 279.00 1500.01 432 1428 2.050 10000.000 0.000 -0.505
94 282.00 1500.01 453 1442 2.050 10000.000 0.000 -0.505
95 285.00 1500.01 491 1282 2.050 10000.000 0.000 -0.505
96 288.00 1500.01 445 1393 2.050 10000.000 0.000 -0.505
97 291.00 1500.01 457 1329 2.050 10000.000 0.000 -0.505
98 294.00 1500.01 461 1297 2.050 10000.000 0.000 -0.505
99 297.00 1500.01 459 1286 2.050 10000.000 0.000 -0.505
100 300.00 1500.01 479 1314 2.050 10000.000 0.000 -0.505
101 303.00 1500.01 469 1321 2.050 10000.000 0.000 -0.505
102 306.00 1500.01 469 1361 2.050 10000.000 0.000 -0.505
103 309.00 1500.01 457 1322 2.050 10000.000 0.000 -0.505
104 312.00 1500.01 469 1450 2.050 10000.000 0.000 -0.505
105 315.00 1500.01 480 1422 2.050 10000.000 0.000 -0.505
106 318.00 1500.01 499 1480 2.050 10000.000 0.000 -0.505
107 321.00 1500.01 454 1432 2.050 10000.000 0.000 -0.505
108 324.00 1500.01 454 1516 2.050 10000.000 0.000 -0.505
109 327.00 1500.01 417 1418 2.050 10000.000 0.000 -0.505
110 330.00 1500.01 434 1545 2.050 10000.000 0.000 -0.505
111 333.00 1500.01 403 1503 2.050 10000.000 0.000 -0.505
112 336.00 1500.01 459 1486 2.050 10000.000 0.000 -0.505
113 339.00 1500.01 461 1429 2.050 10000.000 0.000 -0.505
114 342.00 1500.01 477 1486 2.050 10000.000 0.000 -0.505
115 345.00 1500.01 446 1448 2.050 10000.000 0.000 -0.505
116 348.00 1500.01 433 1464 2.050 10000.000 0.000 -0.505
117 351.00 1500.01 408 1389 2.050 10000.000 0.000 -0.505
118 354.00 1500.01 467 1434 2.050 10000.000 0.000 -0.505
119 357.00 1500.01 456 1467 2.050 10000.000 0.000 -0.505
120 360.00 1500.01 465 1481 2.050 10000.000 0.000 -0.505
121 363.00 1500.01 428 1479 2.050 10000.000 0.000 -0.505
122 366.00 1500.01 449 1501 2.050 10000.000 0.000 -0.505
123 369.00 1500.01 434 1512 2.050 10000.000 0.000 -0.505
124 372.00 1500.01 456 1505 2.050 10000.000 0.000 -0.505
125 375.00 1500.01 452 1452 2.050 10000.000 0.000 -0.505
126 378.00 1500.01 452 1567 2.050 10000.000 0.000 -0.505
127 381.00 1500.01 462 1450 2.050 10000.000 0.000 -0.505
128 384.00 1500.01 442 1400 2.050 10000.000 0.000 -0.505
129 387.00 1500.01 459 1379 2.050 10000.000 0.000 -0.505
130 390.00 1500.01 484 1340 2.050 10000.000 0.000 -0.505
131 393.00 1500.01 453 1292 2.050 10000.000 0.000 -0.505
132 396.00 1500.01 436 1377 2.050 10000.000 0.000 -0.505
133 399.00 1500.01 499 1314 2.050 10000.000 0.000 -0.505
134 402.00 1500.01 451 1288 2.050 10000.000 0.000 -0.505
