# BinNR microsec tot-time (s)  O-Beam AUX Ampl(V) f(Hz) phase(deg) chi(pos)
0 0.00 1500.01 107 354 2.050 10000.000 0.000 -1.329
1 3.00 1500.01 216 671 2.050 10000.000 0.000 -1.329
2 6.00 1500.01 204 634 2.050 10000.000 0.000 -1.329
3 9.00 1500.01 193 559 2.050 10000.000 0.000 -1.329
4 12.00 1500.01 178 490 2.050 10000.000 0.000 -1.329
5 15.00 1500.01 167 415 2.050 10000.000 0.000 -1.329
6 18.00 1500.01 194 323 2.050 10000.000 0.000 -1.329
7 21.00 1500.01 147 295 2.050 10000.000 0.000 -1.329
8 24.00 1500.01 170 282 2.050 10000.000 0.000 -1.329
9 27.00 1500.01 146 252 2.050 10000.000 0.000 -1.329
10 30.00 1500.01 145 218 2.050 10000.000 0.000 -1.329
11 33.00 1500.01 151 181 2.050 10000.000 0.000 -1.329
12 36.00 1500.01 153 179 2.050 10000.000 0.000 -1.329
13 39.00 1500.01 162 190 2.050 10000.000 0.000 -1.329
14 42.00 1500.01 158 201 2.050 10000.000 0.000 -1.329
15 45.00 1500.01 152 196 2.050 10000.000 0.000 -1.329
16 48.00 1500.01 163 184 2.050 10000.000 0.000 -1.329
17 51.00 1500.01 168 190 2.050 10000.000 0.000 -1.329
18 54.00 1500.01 145 208 2.050 10000.000 0.000 -1.329
19 57.00 1500.01 149 224 2.050 10000.000 0.000 -1.329
20 60.00 1500.01 157 208 2.050 10000.000 0.000 -1.329
21 63.00 1500.01 176 223 2.050 10000.000 0.000 -1.329
22 66.00 1500.01 188 271 2.050 10000.000 0.000 -1.329
23 69.00 1500.01 182 283 2.050 10000.000 0.000 -1.329
24 72.00 1500.01 156 380 2.050 10000.000 0.000 -1.329
25 75.00 1500.01 180 420 2.050 10000.000 0.000 -1.329
26 78.00 1500.01 195 480 2.050 10000.000 0.000 -1.329
27 81.00 1500.01 207 568 2.050 10000.000 0.000 -1.329
28 84.00 1500.01 214 641 2.050 10000.000 0.000 -1.329
29 87.00 1500.01 243 601 2.050 10000.000 0.000 -1.329
30 90.00 1500.01 256 730 2.050 10000.000 0.000 -1.329
31 93.00 1500.01 215 770 2.050 10000.000 0.000 -1.329
32 96.00 1500.01 235 727 2.050 10000.000 0.000 -1.329
33 99.00 1500.01 223 757 2.050 10000.000 0.000 -1.329
34 102.00 1500.01 246 818 2.050 10000.000 0.000 -1.329
35 105.00 1500.01 241 703 2.050 10000.000 0.000 -1.329
36 108.00 1500.01 198 672 2.050 10000.000 0.000 -1.329
37 111.00 1500.01 184 588 2.050 10000.000 0.000 -1.329
38 114.00 1500.01 161 552 2.050 10000.000 0.000 -1.329
39 117.00 1500.01 177 438 2.050 10000.000 0.000 -1.329
40 120.00 1500.01 171 402 2.050 10000.000 0.000 -1.329
41 123.00 1500.01 160 362 2.050 10000.000 0.000 -1.329
42 126.00 1500.01 156 276 2.050 10000.000 0.000 -1.329
43 129.00 1500.01 158 240 2.050 10000.000 0.000 -1.329
44 132.00 1500.01 143 218 2.050 10000.000 0.000 -1.329
45 135.00 1500.01 182 198 2.050 10000.000 0.000 -1.329
46 138.00 1500.01 171 201 2.050 10000.000 0.000 -1.329
47 141.00 1500.01 162 170 2.050 10000.000 0.000 -1.329
48 144.00 1500.01 146 175 2.050 10000.000 0.000 -1.329
49 147.00 1500.01 169 167 2.050 10000.000 0.000 -1.329
50 150.00 1500.01 158 185 2.050 10000.000 0.000 -1.329
51 153.00 1500.01 156 173 2.050 10000.000 0.000 -1.329
52 156.00 1500.01 167 194 2.050 10000.000 0.000 -1.329
53 159.00 1500.01 185 191 2.050 10000.000 0.000 -1.329
54 162.00 1500.01 176 214 2.050 10000.000 0.000 -1.329
55 165.00 1500.01 181 258 2.050 10000.000 0.000 -1.329
56 168.00 1500.01 198 304 2.050 10000.000 0.000 -1.329
57 171.00 1500.01 168 329 2.050 10000.000 0.000 -1.329
58 174.00 1500.01 226 429 2.050 10000.000 0.000 -1.329
59 177.00 1500.01 197 474 2.050 10000.000 0.000 -1.329
60 180.00 1500.01 211 537 2.050 10000.000 0.000 -1.329
61 183.00 1500.01 204 567 2.050 10000.000 0.000 -1.329
62 186.00 1500.01 253 680 2.050 10000.000 0.000 -1.329
63 189.00 1500.01 237 711 2.050 10000.000 0.000 -1.329
64 192.00 1500.01 212 718 2.050 10000.000 0.000 -1.329
65 195.00 1500.01 228 754 2.050 10000.000 0.000 -1.329
66 198.00 1500.01 231 723 2.050 10000.000 0.000 -1.329
67 201.00 1500.01 218 718 2.050 10000.000 0.000 -1.329
68 204.00 1500.01 202 726 2.050 10000.000 0.000 -1.329
69 207.00 1500.01 211 652 2.050 10000.000 0.000 -1.329
70 210.00 1500.01 190 607 2.050 10000.000 0.000 -1.329
71 213.00 1500.01 165 562 2.050 10000.000 0.000 -1.329
72 216.00 1500.01 154 518 2.050 10000.000 0.000 -1.329
73 219.00 1500.01 147 428 2.050 10000.000 0.000 -1.329
74 222.00 1500.01 170 341 2.050 10000.000 0.000 -1.329
75 225.00 1500.01 165 282 2.050 10000.000 0.000 -1.329
76 228.00 1500.01 149 279 2.050 10000.000 0.000 -1.329
77 231.00 1500.01 170 219 2.050 10000.000 0.000 -1.329
78 234.00 1500.01 177 205 2.050 10000.000 0.000 -1.329
79 237.00 1500.01 158 193 2.050 10000.000 0.000 -1.329
80 240.00 1500.01 132 193 2.050 10000.000 0.000 -1.329
81 243.00 1500.01 157 181 2.050 10000.000 0.000 -1.329
82 246.00 1500.01 166 197 2.050 10000.000 0.000 -1.329
83 249.00 1500.01 164 202 2.050 10000.000 0.000 -1.329
84 252.00 1500.01 142 184 2.050 10000.000 0.000 -1.329
85 255.00 1500.01 175 180 2.050 10000.000 0.000 -1.329
86 258.00 1500.01 158 178 2.050 10000.000 0.000 -1.329
87 261.00 1500.01 164 208 2.050 10000.000 0.000 -1.329
88 264.00 1500.01 169 247 2.050 10000.000 0.000 -1.329
89 267.00 1500.01 161 267 2.050 10000.000 0.000 -1.329
90 270.00 1500.01 172 319 2.050 10000.000 0.000 -1.329
91 273.00 1500.01 191 373 2.050 10000.000 0.000 -1.329
92 276.00 1500.01 199 471 2.050 10000.000 0.000 -1.329
93 279.00 1500.01 188 557 2.050 10000.000 0.000 -1.329
94 282.00 1500.01 221 631 2.050 10000.000 0.000 -1.329
95 285.00 1500.01 209 654 2.050 10000.000 0.000 -1.329
96 288.00 1500.01 195 720 2.050 10000.000 0.000 -1.329
97 291.00 1500.01 200 744 2.050 10000.000 0.000 -1.329
98 294.00 1500.01 246 775 2.050 10000.000 0.000 -1.329
99 297.00 1500.01 235 721 2.050 10000.000 0.000 -1.329
100 300.00 1500.01 223 742 2.050 10000.000 0.000 -1.329
101 303.00 1500.01 218 712 2.050 10000.000 0.000 -1.329
102 306.00 1500.01 205 651 2.050 10000.000 0.000 -1.329
103 309.00 1500.01 187 647 2.050 10000.000 0.000 -1.329
104 312.00 1500.01 183 572 2.050 10000.000 0.000 -1.329
105 315.00 1500.01 177 507 2.050 10000.000 0.000 -1.329
106 318.00 1500.01 155 433 2.050 10000.000 0.000 -1.329
107 321.00 1500.01 152 372 2.050 10000.000 0.000 -1.329
108 324.00 1500.01 153 332 2.050 10000.000 0.000 -1.329
109 327.00 1500.01 138 268 2.050 10000.000 0.000 -1.329
110 330.00 1500.01 152 214 2.050 10000.000 0.000 -1.329
111 333.00 1500.01 158 218 2.050 10000.000 0.000 -1.329
112 336.00 1500.01 149 183 2.050 10000.000 0.000 -1.329
113 339.00 1500.01 149 183 2.050 10000.000 0.000 -1.329
114 342.00 1500.01 155 173 2.050 10000.000 0.000 -1.329
115 345.00 1500.01 167 185 2.050 10000.000 0.000 -1.329
116 348.00 1500.01 152 171 2.050 10000.000 0.000 -1.329
117 351.00 1500.01 147 168 2.050 10000.000 0.000 -1.329
118 354.00 1500.01 174 201 2.050 10000.000 0.000 -1.329
119 357.00 1500.01 149 186 2.050 10000.000 0.000 -1.329
120 360.00 1500.01 163 237 2.050 10000.000 0.000 -1.329
121 363.00 1500.01 172 208 2.050 10000.000 0.000 -1.329
122 366.00 1500.01 162 275 2.050 10000.000 0.000 -1.329
123 369.00 1500.01 175 298 2.050 10000.000 0.000 -1.329
124 372.00 1500.01 175 373 2.050 10000.000 0.000 -1.329
125 375.00 1500.01 171 402 2.050 10000.000 0.000 -1.329
126 378.00 1500.01 220 511 2.050 10000.000 0.000 -1.329
127 381.00 1500.01 176 584 2.050 10000.000 0.000 -1.329
128 384.00 1500.01 210 666 2.050 10000.000 0.000 -1.329
129 387.00 1500.01 191 654 2.050 10000.000 0.000 -1.329
130 390.00 1500.01 230 739 2.050 10000.000 0.000 -1.329
131 393.00 1500.01 253 778 2.050 10000.000 0.000 -1.329
132 396.00 1500.01 193 751 2.050 10000.000 0.000 -1.329
133 399.00 1500.01 206 763 2.050 10000.000 0.000 -1.329
134 402.00 1500.01 238 734 2.050 10000.000 0.000 -1.329
