# BinNR microsec tot-time (s)  O-Beam AUX Ampl(V) f(Hz) phase(deg) chi(pos)
0 0.00 1500.00 198 681 2.050 10000.000 0.000 -1.011
1 3.00 1500.00 373 1292 2.050 10000.000 0.000 -1.011
2 6.00 1500.00 384 1221 2.050 10000.000 0.000 -1.011
3 9.00 1500.00 337 1140 2.050 10000.000 0.000 -1.011
4 12.00 1500.00 317 1161 2.050 10000.000 0.000 -1.011
5 15.00 1500.00 303 1032 2.050 10000.000 0.000 -1.011
6 18.00 1500.00 279 1018 2.050 10000.000 0.000 -1.011
7 21.00 1500.00 263 846 2.050 10000.000 0.000 -1.011
8 24.00 1500.00 286 763 2.050 10000.000 0.000 -1.011
9 27.00 1500.00 242 739 2.050 10000.000 0.000 -1.011
10 30.00 1500.00 225 673 2.050 10000.000 0.000 -1.011
11 33.00 1500.00 240 608 2.050 10000.000 0.000 -1.011
12 36.00 1500.00 194 603 2.050 10000.000 0.000 -1.011
13 39.00 1500.00 202 609 2.050 10000.000 0.000 -1.011
14 42.00 1500.00 192 584 2.050 10000.000 0.000 -1.011
15 45.00 1500.00 201 620 2.050 10000.000 0.000 -1.011
16 48.00 1500.00 197 581 2.050 10000.000 0.000 -1.011
17 51.00 1500.00 205 603 2.050 10000.000 0.000 -1.011
18 54.00 1500.00 206 626 2.050 10000.000 0.000 -1.011
19 57.00 1500.00 220 720 2.050 10000.000 0.000 -1.011
20 60.00 1500.00 237 707 2.050 10000.000 0.000 -1.011
21 63.00 1500.00 278 741 2.050 10000.000 0.000 -1.011
22 66.00 1500.00 285 865 2.050 10000.000 0.000 -1.011
23 69.00 1500.00 293 893 2.050 10000.000 0.000 -1.011
24 72.00 1500.00 280 977 2.050 10000.000 0.000 -1.011
25 75.00 1500.00 323 1065 2.050 10000.000 0.000 -1.011
26 78.00 1500.00 344 1098 2.050 10000.000 0.000 -1.011
27 81.00 1500.00 343 1244 2.050 10000.000 0.000 -1.011
28 84.00 1500.00 372 1162 2.050 10000.000 0.000 -1.011
29 87.00 1500.00 361 1337 2.050 10000.000 0.000 -1.011
30 90.00 1500.00 394 1310 2.050 10000.000 0.000 -1.011
31 93.00 1500.00 384 1435 2.050 10000.000 0.000 -1.011
32 96.00 1500.00 359 1383 2.050 10000.000 0.000 -1.011
33 99.00 1500.00 362 1359 2.050 10000.000 0.000 -1.011
34 102.00 1500.00 404 1318 2.050 10000.000 0.000 -1.011
35 105.00 1500.00 322 1306 2.050 10000.000 0.000 -1.011
36 108.00 1500.00 326 1259 2.050 10000.000 0.000 -1.011
37 111.00 1500.00 307 1258 2.050 10000.000 0.000 -1.011
38 114.00 1500.00 305 1164 2.050 10000.000 0.000 -1.011
39 117.00 1500.00 279 1143 2.050 10000.000 0.000 -1.011
40 120.00 1500.00 280 1031 2.050 10000.000 0.000 -1.011
41 123.00 1500.00 246 840 2.050 10000.000 0.000 -1.011
42 126.00 1500.00 270 880 2.050 10000.000 0.000 -1.011
43 129.00 1500.00 211 701 2.050 10000.000 0.000 -1.011
44 132.00 1500.00 223 721 2.050 10000.000 0.000 -1.011
45 135.00 1500.00 206 607 2.050 10000.000 0.000 -1.011
46 138.00 1500.00 207 560 2.050 10000.000 0.000 -1.011
47 141.00 1500.00 207 521 2.050 10000.000 0.000 -1.011
48 144.00 1500.00 232 563 2.050 10000.000 0.000 -1.011
49 147.00 1500.00 214 498 2.050 10000.000 0.000 -1.011
50 150.00 1500.00 215 536 2.050 10000.000 0.000 -1.011
51 153.00 1500.00 212 535 2.050 10000.000 0.000 -1.011
52 156.00 1500.00 251 603 2.050 10000.000 0.000 -1.011
53 159.00 1500.00 234 639 2.050 10000.000 0.000 -1.011
54 162.00 1500.00 248 696 2.050 10000.000 0.000 -1.011
55 165.00 1500.00 298 749 2.050 10000.000 0.000 -1.011
56 168.00 1500.00 251 798 2.050 10000.000 0.000 -1.011
57 171.00 1500.00 302 960 2.050 10000.000 0.000 -1.011
58 174.00 1500.00 322 964 2.050 10000.000 0.000 -1.011
59 177.00 1500.00 327 1130 2.050 10000.000 0.000 -1.011
60 180.00 1500.00 328 1220 2.050 10000.000 0.000 -1.011
61 183.00 1500.00 338 1211 2.050 10000.000 0.000 -1.011
62 186.00 1500.00 369 1330 2.050 10000.000 0.000 -1.011
63 189.00 1500.00 350 1273 2.050 10000.000 0.000 -1.011
64 192.00 1500.00 369 1324 2.050 10000.000 0.000 -1.011
65 195.00 1500.00 368 1387 2.050 10000.000 0.000 -1.011
66 198.00 1500.00 368 1325 2.050 10000.000 0.000 -1.011
67 201.00 1500.00 379 1357 2.050 10000.000 0.000 -1.011
68 204.00 1500.00 346 1342 2.050 10000.000 0.000 -1.011
69 207.00 1500.00 359 1322 2.050 10000.000 0.000 -1.011
70 210.00 1500.00 350 1247 2.050 10000.000 0.000 -1.011
71 213.00 1500.00 333 1272 2.050 10000.000 0.000 -1.011
72 216.00 1500.00 289 1155 2.050 10000.000 0.000 -1.011
73 219.00 1500.00 288 991 2.050 10000.000 0.000 -1.011
74 222.00 1500.00 241 926 2.050 10000.000 0.000 -1.011
75 225.00 1500.00 256 836 2.050 10000.000 0.000 -1.011
76 228.00 1500.00 201 769 2.050 10000.000 0.000 -1.011
77 231.00 1500.00 209 724 2.050 10000.000 0.000 -1.011
78 234.00 1500.00 245 604 2.050 10000.000 0.000 -1.011
79 237.00 1500.00 208 582 2.050 10000.000 0.000 -1.011
80 240.00 1500.00 223 580 2.050 10000.000 0.000 -1.011
81 243.00 1500.00 199 513 2.050 10000.000 0.000 -1.011
82 246.00 1500.00 202 502 2.050 10000.000 0.000 -1.011
83 249.00 1500.00 225 526 2.050 10000.000 0.000 -1.011
84 252.00 1500.00 219 565 2.050 10000.000 0.000 -1.011
85 255.00 1500.00 242 559 2.050 10000.000 0.000 -1.011
86 258.00 1500.00 222 610 2.050 10000.000 0.000 -1.011
87 261.00 1500.00 247 681 2.050 10000.000 0.000 -1.011
88 264.00 1500.00 266 762 2.050 10000.000 0.000 -1.011
89 267.00 1500.00 293 792 2.050 10000.000 0.000 -1.011
90 270.00 1500.00 279 950 2.050 10000.000 0.000 -1.011
91 273.00 1500.00 307 1027 2.050 10000.000 0.000 -1.011
92 276.00 1500.00 305 1084 2.050 10000.000 0.000 -1.011
93 279.00 1500.00 344 1125 2.050 10000.000 0.000 -1.011
94 282.00 1500.00 325 1254 2.050 10000.000 0.000 -1.011
95 285.00 1500.00 386 1233 2.050 10000.000 0.000 -1.011
96 288.00 1500.00 391 1320 2.050 10000.000 0.000 -1.011
97 291.00 1500.00 383 1357 2.050 10000.000 0.000 -1.011
98 294.00 1500.00 412 1365 2.050 10000.000 0.000 -1.011
99 297.00 1500.00 392 1341 2.050 10000.000 0.000 -1.011
100 300.00 1500.00 399 1352 2.050 10000.000 0.000 -1.011
101 303.00 1500.00 377 1241 2.050 10000.000 0.000 -1.011
102 306.00 1500.00 372 1325 2.050 10000.000 0.000 -1.011
103 309.00 1500.00 328 1256 2.050 10000.000 0.000 -1.011
104 312.00 1500.00 337 1178 2.050 10000.000 0.000 -1.011
105 315.00 1500.00 305 1131 2.050 10000.000 0.000 -1.011
106 318.00 1500.00 296 1094 2.050 10000.000 0.000 -1.011
107 321.00 1500.00 281 961 2.050 10000.000 0.000 -1.011
108 324.00 1500.00 268 881 2.050 10000.000 0.000 -1.011
109 327.00 1500.00 253 785 2.050 10000.000 0.000 -1.011
110 330.00 1500.00 219 760 2.050 10000.000 0.000 -1.011
111 333.00 1500.00 218 656 2.050 10000.000 0.000 -1.011
112 336.00 1500.00 226 639 2.050 10000.000 0.000 -1.011
113 339.00 1500.00 211 516 2.050 10000.000 0.000 -1.011
114 342.00 1500.00 191 516 2.050 10000.000 0.000 -1.011
115 345.00 1500.00 217 492 2.050 10000.000 0.000 -1.011
116 348.00 1500.00 218 551 2.050 10000.000 0.000 -1.011
117 351.00 1500.00 209 554 2.050 10000.000 0.000 -1.011
118 354.00 1500.00 220 545 2.050 10000.000 0.000 -1.011
119 357.00 1500.00 199 607 2.050 10000.000 0.000 -1.011
120 360.00 1500.00 234 633 2.050 10000.000 0.000 -1.011
121 363.00 1500.00 228 688 2.050 10000.000 0.000 -1.011
122 366.00 1500.00 255 797 2.050 10000.000 0.000 -1.011
123 369.00 1500.00 295 891 2.050 10000.000 0.000 -1.011
124 372.00 1500.00 275 995 2.050 10000.000 0.000 -1.011
125 375.00 1500.00 298 1067 2.050 10000.000 0.000 -1.011
126 378.00 1500.00 343 1155 2.050 10000.000 0.000 -1.011
127 381.00 1500.00 325 1210 2.050 10000.000 0.000 -1.011
128 384.00 1500.00 362 1295 2.050 10000.000 0.000 -1.011
129 387.00 1500.00 365 1227 2.050 10000.000 0.000 -1.011
130 390.00 1500.00 371 1384 2.050 10000.000 0.000 -1.011
131 393.00 1500.00 393 1336 2.050 10000.000 0.000 -1.011
132 396.00 1500.00 382 1336 2.050 10000.000 0.000 -1.011
133 399.00 1500.00 378 1257 2.050 10000.000 0.000 -1.011
134 402.00 1500.00 395 1322 2.050 10000.000 0.000 -1.011
