# BinNR microsec tot-time (s)  O-Beam AUX Ampl(V) f(Hz) phase(deg) chi(pos)
0 0.00 1500.01 155 506 2.050 10000.000 0.000 -1.176
1 3.00 1500.01 289 1008 2.050 10000.000 0.000 -1.176
2 6.00 1500.01 280 946 2.050 10000.000 0.000 -1.176
3 9.00 1500.01 280 907 2.050 10000.000 0.000 -1.176
4 12.00 1500.01 270 780 2.050 10000.000 0.000 -1.176
5 15.00 1500.01 227 739 2.050 10000.000 0.000 -1.176
6 18.00 1500.01 220 620 2.050 10000.000 0.000 -1.176
7 21.00 1500.01 186 545 2.050 10000.000 0.000 -1.176
8 24.00 1500.01 176 498 2.050 10000.000 0.000 -1.176
9 27.00 1500.01 165 403 2.050 10000.000 0.000 -1.176
10 30.00 1500.01 145 380 2.050 10000.000 0.000 -1.176
11 33.00 1500.01 181 310 2.050 10000.000 0.000 -1.176
12 36.00 1500.01 184 349 2.050 10000.000 0.000 -1.176
13 39.00 1500.01 171 341 2.050 10000.000 0.000 -1.176
14 42.00 1500.01 150 339 2.050 10000.000 0.000 -1.176
15 45.00 1500.01 163 314 2.050 10000.000 0.000 -1.176
16 48.00 1500.01 188 303 2.050 10000.000 0.000 -1.176
17 51.00 1500.01 181 341 2.050 10000.000 0.000 -1.176
18 54.00 1500.01 173 370 2.050 10000.000 0.000 -1.176
19 57.00 1500.01 167 412 2.050 10000.000 0.000 -1.176
20 60.00 1500.01 221 458 2.050 10000.000 0.000 -1.176
21 63.00 1500.01 177 419 2.050 10000.000 0.000 -1.176
22 66.00 1500.01 236 532 2.050 10000.000 0.000 -1.176
23 69.00 1500.01 216 569 2.050 10000.000 0.000 -1.176
24 72.00 1500.01 222 645 2.050 10000.000 0.000 -1.176
25 75.00 1500.01 251 646 2.050 10000.000 0.000 -1.176
26 78.00 1500.01 268 818 2.050 10000.000 0.000 -1.176
27 81.00 1500.01 257 895 2.050 10000.000 0.000 -1.176
28 84.00 1500.01 280 978 2.050 10000.000 0.000 -1.176
29 87.00 1500.01 305 980 2.050 10000.000 0.000 -1.176
30 90.00 1500.01 314 1080 2.050 10000.000 0.000 -1.176
31 93.00 1500.01 295 1067 2.050 10000.000 0.000 -1.176
32 96.00 1500.01 270 1116 2.050 10000.000 0.000 -1.176
33 99.00 1500.01 293 1071 2.050 10000.000 0.000 -1.176
34 102.00 1500.01 267 1039 2.050 10000.000 0.000 -1.176
35 105.00 1500.01 253 1071 2.050 10000.000 0.000 -1.176
36 108.00 1500.01 264 925 2.050 10000.000 0.000 -1.176
37 111.00 1500.01 260 971 2.050 10000.000 0.000 -1.176
38 114.00 1500.01 217 851 2.050 10000.000 0.000 -1.176
39 117.00 1500.01 213 736 2.050 10000.000 0.000 -1.176
40 120.00 1500.01 219 678 2.050 10000.000 0.000 -1.176
41 123.00 1500.01 182 610 2.050 10000.000 0.000 -1.176
42 126.00 1500.01 173 523 2.050 10000.000 0.000 -1.176
43 129.00 1500.01 167 468 2.050 10000.000 0.000 -1.176
44 132.00 1500.01 157 376 2.050 10000.000 0.000 -1.176
45 135.00 1500.01 167 340 2.050 10000.000 0.000 -1.176
46 138.00 1500.01 164 312 2.050 10000.000 0.000 -1.176
47 141.00 1500.01 178 286 2.050 10000.000 0.000 -1.176
48 144.00 1500.01 167 291 2.050 10000.000 0.000 -1.176
49 147.00 1500.01 166 294 2.050 10000.000 0.000 -1.176
50 150.00 1500.01 163 299 2.050 10000.000 0.000 -1.176
51 153.00 1500.01 160 288 2.050 10000.000 0.000 -1.176
52 156.00 1500.01 194 336 2.050 10000.000 0.000 -1.176
53 159.00 1500.01 194 341 2.050 10000.000 0.000 -1.176
54 162.00 1500.01 189 391 2.050 10000.000 0.000 -1.176
55 165.00 1500.01 215 445 2.050 10000.000 0.000 -1.176
56 168.00 1500.01 213 564 2.050 10000.000 0.000 -1.176
57 171.00 1500.01 202 609 2.050 10000.000 0.000 -1.176
58 174.00 1500.01 256 714 2.050 10000.000 0.000 -1.176
59 177.00 1500.01 256 779 2.050 10000.000 0.000 -1.176
60 180.00 1500.01 292 865 2.050 10000.000 0.000 -1.176
61 183.00 1500.01 282 989 2.050 10000.000 0.000 -1.176
62 186.00 1500.01 303 1015 2.050 10000.000 0.000 -1.176
63 189.00 1500.01 326 1003 2.050 10000.000 0.000 -1.176
64 192.00 1500.01 300 1116 2.050 10000.000 0.000 -1.176
65 195.00 1500.01 326 1079 2.050 10000.000 0.000 -1.176
66 198.00 1500.01 311 1112 2.050 10000.000 0.000 -1.176
67 201.00 1500.01 277 1080 2.050 10000.000 0.000 -1.176
68 204.00 1500.01 280 1088 2.050 10000.000 0.000 -1.176
69 207.00 1500.01 280 984 2.050 10000.000 0.000 -1.176
70 210.00 1500.01 264 922 2.050 10000.000 0.000 -1.176
71 213.00 1500.01 244 847 2.050 10000.000 0.000 -1.176
72 216.00 1500.01 224 816 2.050 10000.000 0.000 -1.176
73 219.00 1500.01 209 693 2.050 10000.000 0.000 -1.176
74 222.00 1500.01 192 611 2.050 10000.000 0.000 -1.176
75 225.00 1500.01 196 537 2.050 10000.000 0.000 -1.176
76 228.00 1500.01 143 525 2.050 10000.000 0.000 -1.176
77 231.00 1500.01 168 429 2.050 10000.000 0.000 -1.176
78 234.00 1500.01 182 345 2.050 10000.000 0.000 -1.176
79 237.00 1500.01 151 337 2.050 10000.000 0.000 -1.176
80 240.00 1500.01 162 279 2.050 10000.000 0.000 -1.176
81 243.00 1500.01 162 263 2.050 10000.000 0.000 -1.176
82 246.00 1500.01 158 295 2.050 10000.000 0.000 -1.176
83 249.00 1500.01 178 271 2.050 10000.000 0.000 -1.176
84 252.00 1500.01 182 285 2.050 10000.000 0.000 -1.176
85 255.00 1500.01 210 318 2.050 10000.000 0.000 -1.176
86 258.00 1500.01 192 386 2.050 10000.000 0.000 -1.176
87 261.00 1500.01 181 393 2.050 10000.000 0.000 -1.176
88 264.00 1500.01 215 473 2.050 10000.000 0.000 -1.176
89 267.00 1500.01 234 496 2.050 10000.000 0.000 -1.176
90 270.00 1500.01 230 596 2.050 10000.000 0.000 -1.176
91 273.00 1500.01 241 689 2.050 10000.000 0.000 -1.176
92 276.00 1500.01 255 743 2.050 10000.000 0.000 -1.176
93 279.00 1500.01 262 845 2.050 10000.000 0.000 -1.176
94 282.00 1500.01 265 947 2.050 10000.000 0.000 -1.176
95 285.00 1500.01 299 887 2.050 10000.000 0.000 -1.176
96 288.00 1500.01 307 1075 2.050 10000.000 0.000 -1.176
97 291.00 1500.01 312 1067 2.050 10000.000 0.000 -1.176
98 294.00 1500.01 290 1106 2.050 10000.000 0.000 -1.176
99 297.00 1500.01 305 1089 2.050 10000.000 0.000 -1.176
100 300.00 1500.01 306 1119 2.050 10000.000 0.000 -1.176
101 303.00 1500.01 299 1051 2.050 10000.000 0.000 -1.176
102 306.00 1500.01 288 1003 2.050 10000.000 0.000 -1.176
103 309.00 1500.01 255 981 2.050 10000.000 0.000 -1.176
104 312.00 1500.01 240 924 2.050 10000.000 0.000 -1.176
105 315.00 1500.01 246 800 2.050 10000.000 0.000 -1.176
106 318.00 1500.01 196 722 2.050 10000.000 0.000 -1.176
107 321.00 1500.01 195 678 2.050 10000.000 0.000 -1.176
108 324.00 1500.01 202 562 2.050 10000.000 0.000 -1.176
109 327.00 1500.01 160 493 2.050 10000.000 0.000 -1.176
110 330.00 1500.01 180 445 2.050 10000.000 0.000 -1.176
111 333.00 1500.01 164 381 2.050 10000.000 0.000 -1.176
112 336.00 1500.01 183 346 2.050 10000.000 0.000 -1.176
113 339.00 1500.01 188 323 2.050 10000.000 0.000 -1.176
114 342.00 1500.01 156 277 2.050 10000.000 0.000 -1.176
115 345.00 1500.01 149 282 2.050 10000.000 0.000 -1.176
116 348.00 1500.01 177 282 2.050 10000.000 0.000 -1.176
117 351.00 1500.01 174 338 2.050 10000.000 0.000 -1.176
118 354.00 1500.01 202 355 2.050 10000.000 0.000 -1.176
119 357.00 1500.01 171 362 2.050 10000.000 0.000 -1.176
120 360.00 1500.01 194 404 2.050 10000.000 0.000 -1.176
121 363.00 1500.01 173 397 2.050 10000.000 0.000 -1.176
122 366.00 1500.01 201 507 2.050 10000.000 0.000 -1.176
123 369.00 1500.01 215 560 2.050 10000.000 0.000 -1.176
124 372.00 1500.01 226 691 2.050 10000.000 0.000 -1.176
125 375.00 1500.01 240 754 2.050 10000.000 0.000 -1.176
126 378.00 1500.01 267 873 2.050 10000.000 0.000 -1.176
127 381.00 1500.01 269 816 2.050 10000.000 0.000 -1.176
128 384.00 1500.01 262 958 2.050 10000.000 0.000 -1.176
129 387.00 1500.01 262 1053 2.050 10000.000 0.000 -1.176
130 390.00 1500.01 270 1045 2.050 10000.000 0.000 -1.176
131 393.00 1500.01 304 1037 2.050 10000.000 0.000 -1.176
132 396.00 1500.01 268 1105 2.050 10000.000 0.000 -1.176
133 399.00 1500.01 285 1048 2.050 10000.000 0.000 -1.176
134 402.00 1500.01 295 1055 2.050 10000.000 0.000 -1.176
