# BinNR microsec tot-time (s)  O-Beam AUX Ampl(V) f(Hz) phase(deg) chi(pos)
0 0.00 1500.01 240 710 2.050 10000.000 0.000 -0.681
1 3.00 1500.01 487 1445 2.050 10000.000 0.000 -0.681
2 6.00 1500.01 498 1433 2.050 10000.000 0.000 -0.681
3 9.00 1500.01 464 1426 2.050 10000.000 0.000 -0.681
4 12.00 1500.01 460 1529 2.050 10000.000 0.000 -0.681
5 15.00 1500.01 458 1441 2.050 10000.000 0.000 -0.681
6 18.00 1500.01 468 1513 2.050 10000.000 0.000 -0.681
7 21.00 1500.01 445 1425 2.050 10000.000 0.000 -0.681
8 24.00 1500.01 403 1348 2.050 10000.000 0.000 -0.681
9 27.00 1500.01 384 1299 2.050 10000.000 0.000 -0.681
10 30.00 1500.01 404 1339 2.050 10000.000 0.000 -0.681
11 33.00 1500.01 353 1172 2.050 10000.000 0.000 -0.681
12 36.00 1500.01 385 1248 2.050 10000.000 0.000 -0.681
13 39.00 1500.01 345 1227 2.050 10000.000 0.000 -0.681
14 42.00 1500.01 364 1223 2.050 10000.000 0.000 -0.681
15 45.00 1500.01 369 1237 2.050 10000.000 0.000 -0.681
16 48.00 1500.01 378 1182 2.050 10000.000 0.000 -0.681
17 51.00 1500.01 330 1248 2.050 10000.000 0.000 -0.681
18 54.00 1500.01 373 1298 2.050 10000.000 0.000 -0.681
19 57.00 1500.01 361 1328 2.050 10000.000 0.000 -0.681
20 60.00 1500.01 404 1304 2.050 10000.000 0.000 -0.681
21 63.00 1500.01 367 1379 2.050 10000.000 0.000 -0.681
22 66.00 1500.01 406 1357 2.050 10000.000 0.000 -0.681
23 69.00 1500.01 423 1472 2.050 10000.000 0.000 -0.681
24 72.00 1500.01 426 1448 2.050 10000.000 0.000 -0.681
25 75.00 1500.01 432 1530 2.050 10000.000 0.000 -0.681
26 78.00 1500.01 442 1546 2.050 10000.000 0.000 -0.681
27 81.00 1500.01 440 1520 2.050 10000.000 0.000 -0.681
28 84.00 1500.01 471 1546 2.050 10000.000 0.000 -0.681
29 87.00 1500.01 453 1446 2.050 10000.000 0.000 -0.681
30 90.00 1500.01 474 1518 2.050 10000.000 0.000 -0.681
31 93.00 1500.01 476 1413 2.050 10000.000 0.000 -0.681
32 96.00 1500.01 436 1423 2.050 10000.000 0.000 -0.681
33 99.00 1500.01 465 1462 2.050 10000.000 0.000 -0.681
34 102.00 1500.01 449 1489 2.050 10000.000 0.000 -0.681
35 105.00 1500.01 455 1527 2.050 10000.000 0.000 -0.681
36 108.00 1500.01 492 1483 2.050 10000.000 0.000 -0.681
37 111.00 1500.01 455 1529 2.050 10000.000 0.000 -0.681
38 114.00 1500.01 464 1563 2.050 10000.000 0.000 -0.681
39 117.00 1500.01 450 1538 2.050 10000.000 0.000 -0.681
40 120.00 1500.01 421 1571 2.050 10000.000 0.000 -0.681
41 123.00 1500.01 432 1383 2.050 10000.000 0.000 -0.681
42 126.00 1500.01 380 1363 2.050 10000.000 0.000 -0.681
43 129.00 1500.01 373 1357 2.050 10000.000 0.000 -0.681
44 132.00 1500.01 385 1278 2.050 10000.000 0.000 -0.681
45 135.00 1500.01 366 1213 2.050 10000.000 0.000 -0.681
46 138.00 1500.01 382 1251 2.050 10000.000 0.000 -0.681
47 141.00 1500.01 361 1165 2.050 10000.000 0.000 -0.681
48 144.00 1500.01 372 1140 2.050 10000.000 0.000 -0.681
49 147.00 1500.01 342 1169 2.050 10000.000 0.000 -0.681
50 150.00 1500.01 376 1221 2.050 10000.000 0.000 -0.681
51 153.00 1500.01 387 1216 2.050 10000.000 0.000 -0.681
52 156.00 1500.01 388 1321 2.050 10000.000 0.000 -0.681
53 159.00 1500.01 415 1225 2.050 10000.000 0.000 -0.681
54 162.00 1500.01 388 1362 2.050 10000.000 0.000 -0.681
55 165.00 1500.01 433 1380 2.050 10000.000 0.000 -0.681
56 168.00 1500.01 396 1407 2.050 10000.000 0.000 -0.681
57 171.00 1500.01 439 1496 2.050 10000.000 0.000 -0.681
58 174.00 1500.01 415 1484 2.050 10000.000 0.000 -0.681
59 177.00 1500.01 425 1554 2.050 10000.000 0.000 -0.681
60 180.00 1500.01 455 1475 2.050 10000.000 0.000 -0.681
61 183.00 1500.01 473 1492 2.050 10000.000 0.000 -0.681
62 186.00 1500.01 499 1501 2.050 10000.000 0.000 -0.681
63 189.00 1500.01 454 1454 2.050 10000.000 0.000 -0.681
64 192.00 1500.01 449 1493 2.050 10000.000 0.000 -0.681
65 195.00 1500.01 440 1460 2.050 10000.000 0.000 -0.681
66 198.00 1500.01 475 1488 2.050 10000.000 0.000 -0.681
67 201.00 1500.01 495 1441 2.050 10000.000 0.000 -0.681
68 204.00 1500.01 459 1475 2.050 10000.000 0.000 -0.681
69 207.00 1500.01 485 1505 2.050 10000.000 0.000 -0.681
70 210.00 1500.01 450 1546 2.050 10000.000 0.000 -0.681
71 213.00 1500.01 454 1476 2.050 10000.000 0.000 -0.681
72 216.00 1500.01 484 1512 2.050 10000.000 0.000 -0.681
73 219.00 1500.01 470 1474 2.050 10000.000 0.000 -0.681
74 222.00 1500.01 417 1459 2.050 10000.000 0.000 -0.681
75 225.00 1500.01 440 1379 2.050 10000.000 0.000 -0.681
76 228.00 1500.01 378 1413 2.050 10000.000 0.000 -0.681
77 231.00 1500.01 376 1356 2.050 10000.000 0.000 -0.681
78 234.00 1500.01 364 1260 2.050 10000.000 0.000 -0.681
79 237.00 1500.01 349 1203 2.050 10000.000 0.000 -0.681
80 240.00 1500.01 352 1181 2.050 10000.000 0.000 -0.681
81 243.00 1500.01 356 1239 2.050 10000.000 0.000 -0.681
82 246.00 1500.01 342 1165 2.050 10000.000 0.000 -0.681
83 249.00 1500.01 351 1142 2.050 10000.000 0.000 -0.681
84 252.00 1500.01 378 1194 2.050 10000.000 0.000 -0.681
85 255.00 1500.01 381 1242 2.050 10000.000 0.000 -0.681
86 258.00 1500.01 363 1223 2.050 10000.000 0.000 -0.681
87 261.00 1500.01 375 1293 2.050 10000.000 0.000 -0.681
88 264.00 1500.01 434 1323 2.050 10000.000 0.000 -0.681
89 267.00 1500.01 400 1403 2.050 10000.000 0.000 -0.681
90 270.00 1500.01 433 1512 2.050 10000.000 0.000 -0.681
91 273.00 1500.01 442 1554 2.050 10000.000 0.000 -0.681
92 276.00 1500.01 470 1562 2.050 10000.000 0.000 -0.681
93 279.00 1500.01 480 1447 2.050 10000.000 0.000 -0.681
94 282.00 1500.01 473 1513 2.050 10000.000 0.000 -0.681
95 285.00 1500.01 460 1508 2.050 10000.000 0.000 -0.681
96 288.00 1500.01 465 1555 2.050 10000.000 0.000 -0.681
97 291.00 1500.01 459 1530 2.050 10000.000 0.000 -0.681
98 294.00 1500.01 467 1469 2.050 10000.000 0.000 -0.681
99 297.00 1500.01 453 1474 2.050 10000.000 0.000 -0.681
100 300.00 1500.01 470 1486 2.050 10000.000 0.000 -0.681
101 303.00 1500.01 464 1451 2.050 10000.000 0.000 -0.681
102 306.00 1500.01 461 1584 2.050 10000.000 0.000 -0.681
103 309.00 1500.01 482 1514 2.050 10000.000 0.000 -0.681
104 312.00 1500.01 457 1479 2.050 10000.000 0.000 -0.681
105 315.00 1500.01 466 1508 2.050 10000.000 0.000 -0.681
106 318.00 1500.01 436 1525 2.050 10000.000 0.000 -0.681
107 321.00 1500.01 435 1491 2.050 10000.000 0.000 -0.681
108 324.00 1500.01 415 1395 2.050 10000.000 0.000 -0.681
109 327.00 1500.01 385 1373 2.050 10000.000 0.000 -0.681
110 330.00 1500.01 410 1347 2.050 10000.000 0.000 -0.681
111 333.00 1500.01 358 1269 2.050 10000.000 0.000 -0.681
112 336.00 1500.01 433 1261 2.050 10000.000 0.000 -0.681
113 339.00 1500.01 364 1142 2.050 10000.000 0.000 -0.681
114 342.00 1500.01 365 1184 2.050 10000.000 0.000 -0.681
115 345.00 1500.01 335 1220 2.050 10000.000 0.000 -0.681
116 348.00 1500.01 353 1296 2.050 10000.000 0.000 -0.681
117 351.00 1500.01 346 1267 2.050 10000.000 0.000 -0.681
118 354.00 1500.01 411 1244 2.050 10000.000 0.000 -0.681
119 357.00 1500.01 409 1284 2.050 10000.000 0.000 -0.681
120 360.00 1500.01 404 1344 2.050 10000.000 0.000 -0.681
121 363.00 1500.01 401 1344 2.050 10000.000 0.000 -0.681
122 366.00 1500.01 397 1376 2.050 10000.000 0.000 -0.681
123 369.00 1500.01 383 1428 2.050 10000.000 0.000 -0.681
124 372.00 1500.01 429 1474 2.050 10000.000 0.000 -0.681
125 375.00 1500.01 434 1341 2.050 10000.000 0.000 -0.681
126 378.00 1500.01 451 1562 2.050 10000.000 0.000 -0.681
127 381.00 1500.01 475 1525 2.050 10000.000 0.000 -0.681
128 384.00 1500.01 459 1588 2.050 10000.000 0.000 -0.681
129 387.00 1500.01 461 1484 2.050 10000.000 0.000 -0.681
130 390.00 1500.01 456 1471 2.050 10000.000 0.000 -0.681
131 393.00 1500.01 502 1473 2.050 10000.000 0.000 -0.681
132 396.00 1500.01 480 1548 2.050 10000.000 0.000 -0.681
133 399.00 1500.01 476 1526 2.050 10000.000 0.000 -0.681
134 402.00 1500.01 448 1520 2.050 10000.000 0.000 -0.681
