# BinNR microsec tot-time (s)  O-Beam AUX Ampl(V) f(Hz) phase(deg) chi(pos)
0 0.00 1500.01 238 621 1.000 10000.000 0.000 1.318
1 3.00 1500.01 455 1246 1.000 10000.000 0.000 1.318
2 6.00 1500.01 456 1359 1.000 10000.000 0.000 1.318
3 9.00 1500.01 411 1348 1.000 10000.000 0.000 1.318
4 12.00 1500.01 438 1322 1.000 10000.000 0.000 1.318
5 15.00 1500.01 435 1258 1.000 10000.000 0.000 1.318
6 18.00 1500.01 449 1380 1.000 10000.000 0.000 1.318
7 21.00 1500.01 460 1351 1.000 10000.000 0.000 1.318
8 24.00 1500.01 483 1378 1.000 10000.000 0.000 1.318
9 27.00 1500.01 452 1262 1.000 10000.000 0.000 1.318
10 30.00 1500.01 444 1350 1.000 10000.000 0.000 1.318
11 33.00 1500.01 460 1288 1.000 10000.000 0.000 1.318
12 36.00 1500.01 480 1381 1.000 10000.000 0.000 1.318
13 39.00 1500.01 480 1341 1.000 10000.000 0.000 1.318
14 42.00 1500.01 450 1360 1.000 10000.000 0.000 1.318
15 45.00 1500.01 470 1320 1.000 10000.000 0.000 1.318
16 48.00 1500.01 483 1319 1.000 10000.000 0.000 1.318
17 51.00 1500.01 433 1347 1.000 10000.000 0.000 1.318
18 54.00 1500.01 462 1344 1.000 10000.000 0.000 1.318
19 57.00 1500.01 471 1323 1.000 10000.000 0.000 1.318
20 60.00 1500.01 487 1370 1.000 10000.000 0.000 1.318
21 63.00 1500.01 462 1319 1.000 10000.000 0.000 1.318
22 66.00 1500.01 457 1378 1.000 10000.000 0.000 1.318
23 69.00 1500.01 430 1289 1.000 10000.000 0.000 1.318
24 72.00 1500.01 432 1324 1.000 10000.000 0.000 1.318
25 75.00 1500.01 450 1358 1.000 10000.000 0.000 1.318
26 78.00 1500.01 439 1349 1.000 10000.000 0.000 1.318
27 81.00 1500.01 443 1376 1.000 10000.000 0.000 1.318
28 84.00 1500.01 452 1347 1.000 10000.000 0.000 1.318
29 87.00 1500.01 428 1242 1.000 10000.000 0.000 1.318
30 90.00 1500.01 411 1283 1.000 10000.000 0.000 1.318
31 93.00 1500.01 402 1241 1.000 10000.000 0.000 1.318
32 96.00 1500.01 429 1322 1.000 10000.000 0.000 1.318
33 99.00 1500.01 423 1332 1.000 10000.000 0.000 1.318
34 102.00 1500.01 403 1373 1.000 10000.000 0.000 1.318
35 105.00 1500.01 405 1339 1.000 10000.000 0.000 1.318
36 108.00 1500.01 464 1358 1.000 10000.000 0.000 1.318
37 111.00 1500.01 433 1328 1.000 10000.000 0.000 1.318
38 114.00 1500.01 451 1287 1.000 10000.000 0.000 1.318
39 117.00 1500.01 437 1368 1.000 10000.000 0.000 1.318
40 120.00 1500.01 477 1332 1.000 10000.000 0.000 1.318
41 123.00 1500.01 448 1332 1.000 10000.000 0.000 1.318
42 126.00 1500.01 475 1348 1.000 10000.000 0.000 1.318
43 129.00 1500.01 475 1324 1.000 10000.000 0.000 1.318
44 132.00 1500.01 498 1359 1.000 10000.000 0.000 1.318
45 135.00 1500.01 443 1312 1.000 10000.000 0.000 1.318
46 138.00 1500.01 474 1349 1.000 10000.000 0.000 1.318
47 141.00 1500.01 448 1410 1.000 10000.000 0.000 1.318
48 144.00 1500.01 474 1310 1.000 10000.000 0.000 1.318
49 147.00 1500.01 465 1284 1.000 10000.000 0.000 1.318
50 150.00 1500.01 514 1309 1.000 10000.000 0.000 1.318
51 153.00 1500.01 486 1246 1.000 10000.000 0.000 1.318
52 156.00 1500.01 467 1389 1.000 10000.000 0.000 1.318
53 159.00 1500.01 464 1278 1.000 10000.000 0.000 1.318
54 162.00 1500.01 449 1373 1.000 10000.000 0.000 1.318
55 165.00 1500.01 481 1334 1.000 10000.000 0.000 1.318
56 168.00 1500.01 494 1297 1.000 10000.000 0.000 1.318
57 171.00 1500.01 431 1301 1.000 10000.000 0.000 1.318
58 174.00 1500.01 436 1336 1.000 10000.000 0.000 1.318
59 177.00 1500.01 412 1297 1.000 10000.000 0.000 1.318
60 180.00 1500.01 444 1394 1.000 10000.000 0.000 1.318
61 183.00 1500.01 414 1287 1.000 10000.000 0.000 1.318
62 186.00 1500.01 406 1339 1.000 10000.000 0.000 1.318
63 189.00 1500.01 408 1276 1.000 10000.000 0.000 1.318
64 192.00 1500.01 443 1254 1.000 10000.000 0.000 1.318
65 195.00 1500.01 415 1333 1.000 10000.000 0.000 1.318
66 198.00 1500.01 401 1220 1.000 10000.000 0.000 1.318
67 201.00 1500.01 435 1286 1.000 10000.000 0.000 1.318
68 204.00 1500.01 437 1339 1.000 10000.000 0.000 1.318
69 207.00 1500.01 406 1352 1.000 10000.000 0.000 1.318
70 210.00 1500.01 457 1278 1.000 10000.000 0.000 1.318
71 213.00 1500.01 428 1250 1.000 10000.000 0.000 1.318
72 216.00 1500.01 460 1351 1.000 10000.000 0.000 1.318
73 219.00 1500.01 447 1323 1.000 10000.000 0.000 1.318
74 222.00 1500.01 476 1329 1.000 10000.000 0.000 1.318
75 225.00 1500.01 420 1338 1.000 10000.000 0.000 1.318
76 228.00 1500.01 474 1387 1.000 10000.000 0.000 1.318
77 231.00 1500.01 448 1352 1.000 10000.000 0.000 1.318
78 234.00 1500.01 508 1304 1.000 10000.000 0.000 1.318
79 237.00 1500.01 484 1309 1.000 10000.000 0.000 1.318
80 240.00 1500.01 503 1313 1.000 10000.000 0.000 1.318
81 243.00 1500.01 456 1273 1.000 10000.000 0.000 1.318
82 246.00 1500.01 470 1389 1.000 10000.000 0.000 1.318
83 249.00 1500.01 461 1348 1.000 10000.000 0.000 1.318
84 252.00 1500.01 498 1371 1.000 10000.000 0.000 1.318
85 255.00 1500.01 432 1359 1.000 10000.000 0.000 1.318
86 258.00 1500.01 456 1365 1.000 10000.000 0.000 1.318
87 261.00 1500.01 445 1382 1.000 10000.000 0.000 1.318
88 264.00 1500.01 477 1390 1.000 10000.000 0.000 1.318
89 267.00 1500.01 453 1289 1.000 10000.000 0.000 1.318
90 270.00 1500.01 461 1321 1.000 10000.000 0.000 1.318
91 273.00 1500.01 428 1282 1.000 10000.000 0.000 1.318
92 276.00 1500.01 479 1363 1.000 10000.000 0.000 1.318
93 279.00 1500.01 451 1284 1.000 10000.000 0.000 1.318
94 282.00 1500.01 371 1354 1.000 10000.000 0.000 1.318
95 285.00 1500.01 439 1313 1.000 10000.000 0.000 1.318
96 288.00 1500.01 438 1256 1.000 10000.000 0.000 1.318
97 291.00 1500.01 413 1285 1.000 10000.000 0.000 1.318
98 294.00 1500.01 431 1354 1.000 10000.000 0.000 1.318
99 297.00 1500.01 421 1249 1.000 10000.000 0.000 1.318
100 300.00 1500.01 426 1328 1.000 10000.000 0.000 1.318
101 303.00 1500.01 455 1286 1.000 10000.000 0.000 1.318
102 306.00 1500.01 469 1236 1.000 10000.000 0.000 1.318
103 309.00 1500.01 425 1199 1.000 10000.000 0.000 1.318
104 312.00 1500.01 406 1323 1.000 10000.000 0.000 1.318
105 315.00 1500.01 469 1314 1.000 10000.000 0.000 1.318
106 318.00 1500.01 405 1340 1.000 10000.000 0.000 1.318
107 321.00 1500.01 459 1401 1.000 10000.000 0.000 1.318
108 324.00 1500.01 453 1335 1.000 10000.000 0.000 1.318
109 327.00 1500.01 429 1342 1.000 10000.000 0.000 1.318
110 330.00 1500.01 465 1319 1.000 10000.000 0.000 1.318
111 333.00 1500.01 452 1244 1.000 10000.000 0.000 1.318
112 336.00 1500.01 489 1318 1.000 10000.000 0.000 1.318
113 339.00 1500.01 473 1297 1.000 10000.000 0.000 1.318
114 342.00 1500.01 447 1361 1.000 10000.000 0.000 1.318
115 345.00 1500.01 449 1319 1.000 10000.000 0.000 1.318
116 348.00 1500.01 451 1349 1.000 10000.000 0.000 1.318
117 351.00 1500.01 445 1352 1.000 10000.000 0.000 1.318
118 354.00 1500.01 445 1313 1.000 10000.000 0.000 1.318
119 357.00 1500.01 462 1251 1.000 10000.000 0.000 1.318
120 360.00 1500.01 450 1307 1.000 10000.000 0.000 1.318
121 363.00 1500.01 452 1314 1.000 10000.000 0.000 1.318
122 366.00 1500.01 467 1343 1.000 10000.000 0.000 1.318
123 369.00 1500.01 468 1347 1.000 10000.000 0.000 1.318
124 372.00 1500.01 423 1328 1.000 10000.000 0.000 1.318
125 375.00 1500.01 423 1333 1.000 10000.000 0.000 1.318
126 378.00 1500.01 449 1316 1.000 10000.000 0.000 1.318
127 381.00 1500.01 466 1299 1.000 10000.000 0.000 1.318
128 384.00 1500.01 409 1376 1.000 10000.000 0.000 1.318
129 387.00 1500.01 403 1308 1.000 10000.000 0.000 1.318
130 390.00 1500.01 408 1324 1.000 10000.000 0.000 1.318
131 393.00 1500.01 383 1291 1.000 10000.000 0.000 1.318
132 396.00 1500.01 414 1286 1.000 10000.000 0.000 1.318
133 399.00 1500.01 411 1324 1.000 10000.000 0.000 1.318
134 402.00 1500.01 438 1247 1.000 10000.000 0.000 1.318
