# BinNR microsec tot-time (s)  O-Beam AUX Ampl(V) f(Hz) phase(deg) chi(pos)
0 0.00 1500.02 185 611 1.000 10000.000 0.000 -0.835
1 3.00 1500.02 346 1164 1.000 10000.000 0.000 -0.835
2 6.00 1500.02 408 1244 1.000 10000.000 0.000 -0.835
3 9.00 1500.02 397 1255 1.000 10000.000 0.000 -0.835
4 12.00 1500.02 414 1255 1.000 10000.000 0.000 -0.835
5 15.00 1500.02 398 1209 1.000 10000.000 0.000 -0.835
6 18.00 1500.02 411 1329 1.000 10000.000 0.000 -0.835
7 21.00 1500.02 435 1327 1.000 10000.000 0.000 -0.835
8 24.00 1500.02 424 1312 1.000 10000.000 0.000 -0.835
9 27.00 1500.02 433 1302 1.000 10000.000 0.000 -0.835
10 30.00 1500.02 457 1355 1.000 10000.000 0.000 -0.835
11 33.00 1500.02 429 1385 1.000 10000.000 0.000 -0.835
12 36.00 1500.02 465 1411 1.000 10000.000 0.000 -0.835
13 39.00 1500.02 487 1382 1.000 10000.000 0.000 -0.835
14 42.00 1500.02 479 1346 1.000 10000.000 0.000 -0.835
15 45.00 1500.02 402 1364 1.000 10000.000 0.000 -0.835
16 48.00 1500.02 471 1373 1.000 10000.000 0.000 -0.835
17 51.00 1500.02 451 1284 1.000 10000.000 0.000 -0.835
18 54.00 1500.02 466 1430 1.000 10000.000 0.000 -0.835
19 57.00 1500.02 444 1330 1.000 10000.000 0.000 -0.835
20 60.00 1500.02 449 1307 1.000 10000.000 0.000 -0.835
21 63.00 1500.02 383 1345 1.000 10000.000 0.000 -0.835
22 66.00 1500.02 397 1358 1.000 10000.000 0.000 -0.835
23 69.00 1500.02 372 1262 1.000 10000.000 0.000 -0.835
24 72.00 1500.02 419 1256 1.000 10000.000 0.000 -0.835
25 75.00 1500.02 416 1221 1.000 10000.000 0.000 -0.835
26 78.00 1500.02 390 1274 1.000 10000.000 0.000 -0.835
27 81.00 1500.02 381 1192 1.000 10000.000 0.000 -0.835
28 84.00 1500.02 383 1206 1.000 10000.000 0.000 -0.835
29 87.00 1500.02 407 1198 1.000 10000.000 0.000 -0.835
30 90.00 1500.02 380 1139 1.000 10000.000 0.000 -0.835
31 93.00 1500.02 381 1196 1.000 10000.000 0.000 -0.835
32 96.00 1500.02 375 1203 1.000 10000.000 0.000 -0.835
33 99.00 1500.02 377 1218 1.000 10000.000 0.000 -0.835
34 102.00 1500.02 340 1184 1.000 10000.000 0.000 -0.835
35 105.00 1500.02 426 1155 1.000 10000.000 0.000 -0.835
36 108.00 1500.02 416 1212 1.000 10000.000 0.000 -0.835
37 111.00 1500.02 415 1210 1.000 10000.000 0.000 -0.835
38 114.00 1500.02 428 1231 1.000 10000.000 0.000 -0.835
39 117.00 1500.02 384 1279 1.000 10000.000 0.000 -0.835
40 120.00 1500.02 451 1327 1.000 10000.000 0.000 -0.835
41 123.00 1500.02 414 1369 1.000 10000.000 0.000 -0.835
42 126.00 1500.02 441 1388 1.000 10000.000 0.000 -0.835
43 129.00 1500.02 417 1384 1.000 10000.000 0.000 -0.835
44 132.00 1500.02 471 1354 1.000 10000.000 0.000 -0.835
45 135.00 1500.02 458 1337 1.000 10000.000 0.000 -0.835
46 138.00 1500.02 427 1335 1.000 10000.000 0.000 -0.835
47 141.00 1500.02 467 1338 1.000 10000.000 0.000 -0.835
48 144.00 1500.02 467 1345 1.000 10000.000 0.000 -0.835
49 147.00 1500.02 463 1349 1.000 10000.000 0.000 -0.835
50 150.00 1500.02 435 1324 1.000 10000.000 0.000 -0.835
51 153.00 1500.02 423 1331 1.000 10000.000 0.000 -0.835
52 156.00 1500.02 497 1403 1.000 10000.000 0.000 -0.835
53 159.00 1500.02 429 1394 1.000 10000.000 0.000 -0.835
54 162.00 1500.02 412 1336 1.000 10000.000 0.000 -0.835
55 165.00 1500.02 429 1292 1.000 10000.000 0.000 -0.835
56 168.00 1500.02 424 1278 1.000 10000.000 0.000 -0.835
57 171.00 1500.02 407 1252 1.000 10000.000 0.000 -0.835
58 174.00 1500.02 429 1276 1.000 10000.000 0.000 -0.835
59 177.00 1500.02 386 1287 1.000 10000.000 0.000 -0.835
60 180.00 1500.02 387 1186 1.000 10000.000 0.000 -0.835
61 183.00 1500.02 388 1236 1.000 10000.000 0.000 -0.835
62 186.00 1500.02 386 1238 1.000 10000.000 0.000 -0.835
63 189.00 1500.02 379 1195 1.000 10000.000 0.000 -0.835
64 192.00 1500.02 377 1217 1.000 10000.000 0.000 -0.835
65 195.00 1500.02 414 1155 1.000 10000.000 0.000 -0.835
66 198.00 1500.02 346 1204 1.000 10000.000 0.000 -0.835
67 201.00 1500.02 346 1234 1.000 10000.000 0.000 -0.835
68 204.00 1500.02 391 1269 1.000 10000.000 0.000 -0.835
69 207.00 1500.02 421 1224 1.000 10000.000 0.000 -0.835
70 210.00 1500.02 424 1233 1.000 10000.000 0.000 -0.835
71 213.00 1500.02 385 1242 1.000 10000.000 0.000 -0.835
72 216.00 1500.02 428 1269 1.000 10000.000 0.000 -0.835
73 219.00 1500.02 388 1304 1.000 10000.000 0.000 -0.835
74 222.00 1500.02 438 1287 1.000 10000.000 0.000 -0.835
75 225.00 1500.02 395 1336 1.000 10000.000 0.000 -0.835
76 228.00 1500.02 415 1337 1.000 10000.000 0.000 -0.835
77 231.00 1500.02 422 1323 1.000 10000.000 0.000 -0.835
78 234.00 1500.02 462 1393 1.000 10000.000 0.000 -0.835
79 237.00 1500.02 477 1350 1.000 10000.000 0.000 -0.835
80 240.00 1500.02 449 1419 1.000 10000.000 0.000 -0.835
81 243.00 1500.02 425 1363 1.000 10000.000 0.000 -0.835
82 246.00 1500.02 435 1360 1.000 10000.000 0.000 -0.835
83 249.00 1500.02 465 1271 1.000 10000.000 0.000 -0.835
84 252.00 1500.02 455 1360 1.000 10000.000 0.000 -0.835
85 255.00 1500.02 457 1355 1.000 10000.000 0.000 -0.835
86 258.00 1500.02 400 1374 1.000 10000.000 0.000 -0.835
87 261.00 1500.02 413 1315 1.000 10000.000 0.000 -0.835
88 264.00 1500.02 430 1325 1.000 10000.000 0.000 -0.835
89 267.00 1500.02 387 1278 1.000 10000.000 0.000 -0.835
90 270.00 1500.02 405 1344 1.000 10000.000 0.000 -0.835
91 273.00 1500.02 415 1282 1.000 10000.000 0.000 -0.835
92 276.00 1500.02 422 1277 1.000 10000.000 0.000 -0.835
93 279.00 1500.02 397 1257 1.000 10000.000 0.000 -0.835
94 282.00 1500.02 367 1110 1.000 10000.000 0.000 -0.835
95 285.00 1500.02 359 1246 1.000 10000.000 0.000 -0.835
96 288.00 1500.02 385 1192 1.000 10000.000 0.000 -0.835
97 291.00 1500.02 371 1248 1.000 10000.000 0.000 -0.835
98 294.00 1500.02 382 1218 1.000 10000.000 0.000 -0.835
99 297.00 1500.02 354 1135 1.000 10000.000 0.000 -0.835
100 300.00 1500.02 379 1207 1.000 10000.000 0.000 -0.835
101 303.00 1500.02 384 1215 1.000 10000.000 0.000 -0.835
102 306.00 1500.02 386 1237 1.000 10000.000 0.000 -0.835
103 309.00 1500.02 397 1209 1.000 10000.000 0.000 -0.835
104 312.00 1500.02 439 1227 1.000 10000.000 0.000 -0.835
105 315.00 1500.02 405 1264 1.000 10000.000 0.000 -0.835
106 318.00 1500.02 422 1332 1.000 10000.000 0.000 -0.835
107 321.00 1500.02 459 1302 1.000 10000.000 0.000 -0.835
108 324.00 1500.02 423 1263 1.000 10000.000 0.000 -0.835
109 327.00 1500.02 413 1284 1.000 10000.000 0.000 -0.835
110 330.00 1500.02 447 1340 1.000 10000.000 0.000 -0.835
111 333.00 1500.02 427 1334 1.000 10000.000 0.000 -0.835
112 336.00 1500.02 470 1397 1.000 10000.000 0.000 -0.835
113 339.00 1500.02 447 1355 1.000 10000.000 0.000 -0.835
114 342.00 1500.02 470 1376 1.000 10000.000 0.000 -0.835
115 345.00 1500.02 445 1355 1.000 10000.000 0.000 -0.835
116 348.00 1500.02 445 1368 1.000 10000.000 0.000 -0.835
117 351.00 1500.02 415 1327 1.000 10000.000 0.000 -0.835
118 354.00 1500.02 461 1327 1.000 10000.000 0.000 -0.835
119 357.00 1500.02 479 1359 1.000 10000.000 0.000 -0.835
120 360.00 1500.02 466 1397 1.000 10000.000 0.000 -0.835
121 363.00 1500.02 425 1292 1.000 10000.000 0.000 -0.835
122 366.00 1500.02 450 1382 1.000 10000.000 0.000 -0.835
123 369.00 1500.02 428 1302 1.000 10000.000 0.000 -0.835
124 372.00 1500.02 364 1331 1.000 10000.000 0.000 -0.835
125 375.00 1500.02 426 1279 1.000 10000.000 0.000 -0.835
126 378.00 1500.02 425 1313 1.000 10000.000 0.000 -0.835
127 381.00 1500.02 380 1169 1.000 10000.000 0.000 -0.835
128 384.00 1500.02 421 1272 1.000 10000.000 0.000 -0.835
129 387.00 1500.02 378 1209 1.000 10000.000 0.000 -0.835
130 390.00 1500.02 383 1185 1.000 10000.000 0.000 -0.835
131 393.00 1500.02 388 1145 1.000 10000.000 0.000 -0.835
132 396.00 1500.02 378 1218 1.000 10000.000 0.000 -0.835
133 399.00 1500.02 382 1151 1.000 10000.000 0.000 -0.835
134 402.00 1500.02 398 1238 1.000 10000.000 0.000 -0.835
