# BinNR microsec tot-time (s)  O-Beam AUX Ampl(V) f(Hz) phase(deg) chi(pos)
0 0.00 1200.02 103 365 1.100 10000.000 0.000 -1.176
1 3.00 1200.02 171 732 1.100 10000.000 0.000 -1.176
2 6.00 1200.02 211 681 1.100 10000.000 0.000 -1.176
3 9.00 1200.02 174 626 1.100 10000.000 0.000 -1.176
4 12.00 1200.02 193 683 1.100 10000.000 0.000 -1.176
5 15.00 1200.02 164 600 1.100 10000.000 0.000 -1.176
6 18.00 1200.02 162 665 1.100 10000.000 0.000 -1.176
7 21.00 1200.02 165 628 1.100 10000.000 0.000 -1.176
8 24.00 1200.02 162 652 1.100 10000.000 0.000 -1.176
9 27.00 1200.02 161 647 1.100 10000.000 0.000 -1.176
10 30.00 1200.02 190 654 1.100 10000.000 0.000 -1.176
11 33.00 1200.02 170 598 1.100 10000.000 0.000 -1.176
12 36.00 1200.02 179 672 1.100 10000.000 0.000 -1.176
13 39.00 1200.02 187 647 1.100 10000.000 0.000 -1.176
14 42.00 1200.02 180 674 1.100 10000.000 0.000 -1.176
15 45.00 1200.02 176 706 1.100 10000.000 0.000 -1.176
16 48.00 1200.02 197 770 1.100 10000.000 0.000 -1.176
17 51.00 1200.02 177 725 1.100 10000.000 0.000 -1.176
18 54.00 1200.02 202 722 1.100 10000.000 0.000 -1.176
19 57.00 1200.02 187 631 1.100 10000.000 0.000 -1.176
20 60.00 1200.02 217 674 1.100 10000.000 0.000 -1.176
21 63.00 1200.02 165 674 1.100 10000.000 0.000 -1.176
22 66.00 1200.02 210 618 1.100 10000.000 0.000 -1.176
23 69.00 1200.02 226 654 1.100 10000.000 0.000 -1.176
24 72.00 1200.02 194 615 1.100 10000.000 0.000 -1.176
25 75.00 1200.02 198 599 1.100 10000.000 0.000 -1.176
26 78.00 1200.02 224 633 1.100 10000.000 0.000 -1.176
27 81.00 1200.02 210 581 1.100 10000.000 0.000 -1.176
28 84.00 1200.02 197 568 1.100 10000.000 0.000 -1.176
29 87.00 1200.02 188 549 1.100 10000.000 0.000 -1.176
30 90.00 1200.02 205 595 1.100 10000.000 0.000 -1.176
31 93.00 1200.02 201 527 1.100 10000.000 0.000 -1.176
32 96.00 1200.02 205 538 1.100 10000.000 0.000 -1.176
33 99.00 1200.02 194 530 1.100 10000.000 0.000 -1.176
34 102.00 1200.02 198 596 1.100 10000.000 0.000 -1.176
35 105.00 1200.02 183 600 1.100 10000.000 0.000 -1.176
36 108.00 1200.02 171 605 1.100 10000.000 0.000 -1.176
37 111.00 1200.02 177 647 1.100 10000.000 0.000 -1.176
38 114.00 1200.02 178 655 1.100 10000.000 0.000 -1.176
39 117.00 1200.02 177 620 1.100 10000.000 0.000 -1.176
40 120.00 1200.02 191 660 1.100 10000.000 0.000 -1.176
41 123.00 1200.02 169 693 1.100 10000.000 0.000 -1.176
42 126.00 1200.02 166 650 1.100 10000.000 0.000 -1.176
43 129.00 1200.02 169 677 1.100 10000.000 0.000 -1.176
44 132.00 1200.02 170 721 1.100 10000.000 0.000 -1.176
45 135.00 1200.02 167 654 1.100 10000.000 0.000 -1.176
46 138.00 1200.02 170 725 1.100 10000.000 0.000 -1.176
47 141.00 1200.02 172 647 1.100 10000.000 0.000 -1.176
48 144.00 1200.02 198 738 1.100 10000.000 0.000 -1.176
49 147.00 1200.02 188 731 1.100 10000.000 0.000 -1.176
50 150.00 1200.02 218 669 1.100 10000.000 0.000 -1.176
51 153.00 1200.02 170 710 1.100 10000.000 0.000 -1.176
52 156.00 1200.02 196 674 1.100 10000.000 0.000 -1.176
53 159.00 1200.02 192 669 1.100 10000.000 0.000 -1.176
54 162.00 1200.02 195 642 1.100 10000.000 0.000 -1.176
55 165.00 1200.02 204 616 1.100 10000.000 0.000 -1.176
56 168.00 1200.02 187 611 1.100 10000.000 0.000 -1.176
57 171.00 1200.02 193 594 1.100 10000.000 0.000 -1.176
58 174.00 1200.02 211 558 1.100 10000.000 0.000 -1.176
59 177.00 1200.02 210 567 1.100 10000.000 0.000 -1.176
60 180.00 1200.02 190 583 1.100 10000.000 0.000 -1.176
61 183.00 1200.02 217 578 1.100 10000.000 0.000 -1.176
62 186.00 1200.02 190 521 1.100 10000.000 0.000 -1.176
63 189.00 1200.02 194 616 1.100 10000.000 0.000 -1.176
64 192.00 1200.02 203 558 1.100 10000.000 0.000 -1.176
65 195.00 1200.02 199 539 1.100 10000.000 0.000 -1.176
66 198.00 1200.02 195 581 1.100 10000.000 0.000 -1.176
67 201.00 1200.02 184 623 1.100 10000.000 0.000 -1.176
68 204.00 1200.02 183 563 1.100 10000.000 0.000 -1.176
69 207.00 1200.02 186 571 1.100 10000.000 0.000 -1.176
70 210.00 1200.02 182 649 1.100 10000.000 0.000 -1.176
71 213.00 1200.02 194 634 1.100 10000.000 0.000 -1.176
72 216.00 1200.02 160 682 1.100 10000.000 0.000 -1.176
73 219.00 1200.02 178 672 1.100 10000.000 0.000 -1.176
74 222.00 1200.02 174 737 1.100 10000.000 0.000 -1.176
75 225.00 1200.02 163 678 1.100 10000.000 0.000 -1.176
76 228.00 1200.02 177 684 1.100 10000.000 0.000 -1.176
77 231.00 1200.02 175 763 1.100 10000.000 0.000 -1.176
78 234.00 1200.02 149 745 1.100 10000.000 0.000 -1.176
79 237.00 1200.02 158 714 1.100 10000.000 0.000 -1.176
80 240.00 1200.02 192 742 1.100 10000.000 0.000 -1.176
81 243.00 1200.02 177 699 1.100 10000.000 0.000 -1.176
82 246.00 1200.02 200 698 1.100 10000.000 0.000 -1.176
83 249.00 1200.02 173 638 1.100 10000.000 0.000 -1.176
84 252.00 1200.02 213 692 1.100 10000.000 0.000 -1.176
85 255.00 1200.02 179 670 1.100 10000.000 0.000 -1.176
86 258.00 1200.02 197 680 1.100 10000.000 0.000 -1.176
87 261.00 1200.02 182 688 1.100 10000.000 0.000 -1.176
88 264.00 1200.02 225 621 1.100 10000.000 0.000 -1.176
89 267.00 1200.02 205 603 1.100 10000.000 0.000 -1.176
90 270.00 1200.02 181 609 1.100 10000.000 0.000 -1.176
91 273.00 1200.02 200 564 1.100 10000.000 0.000 -1.176
92 276.00 1200.02 222 588 1.100 10000.000 0.000 -1.176
93 279.00 1200.02 204 534 1.100 10000.000 0.000 -1.176
94 282.00 1200.02 193 587 1.100 10000.000 0.000 -1.176
95 285.00 1200.02 188 552 1.100 10000.000 0.000 -1.176
96 288.00 1200.02 199 548 1.100 10000.000 0.000 -1.176
97 291.00 1200.02 184 519 1.100 10000.000 0.000 -1.176
98 294.00 1200.02 210 574 1.100 10000.000 0.000 -1.176
99 297.00 1200.02 192 589 1.100 10000.000 0.000 -1.176
100 300.00 1200.02 196 551 1.100 10000.000 0.000 -1.176
101 303.00 1200.02 194 571 1.100 10000.000 0.000 -1.176
102 306.00 1200.02 199 593 1.100 10000.000 0.000 -1.176
103 309.00 1200.02 193 608 1.100 10000.000 0.000 -1.176
104 312.00 1200.02 177 647 1.100 10000.000 0.000 -1.176
105 315.00 1200.02 202 643 1.100 10000.000 0.000 -1.176
106 318.00 1200.02 168 666 1.100 10000.000 0.000 -1.176
107 321.00 1200.02 204 707 1.100 10000.000 0.000 -1.176
108 324.00 1200.02 196 703 1.100 10000.000 0.000 -1.176
109 327.00 1200.02 185 692 1.100 10000.000 0.000 -1.176
110 330.00 1200.02 212 741 1.100 10000.000 0.000 -1.176
111 333.00 1200.02 186 727 1.100 10000.000 0.000 -1.176
112 336.00 1200.02 186 714 1.100 10000.000 0.000 -1.176
113 339.00 1200.02 171 649 1.100 10000.000 0.000 -1.176
114 342.00 1200.02 196 762 1.100 10000.000 0.000 -1.176
115 345.00 1200.02 185 654 1.100 10000.000 0.000 -1.176
116 348.00 1200.02 170 763 1.100 10000.000 0.000 -1.176
117 351.00 1200.02 181 642 1.100 10000.000 0.000 -1.176
118 354.00 1200.02 168 670 1.100 10000.000 0.000 -1.176
119 357.00 1200.02 188 661 1.100 10000.000 0.000 -1.176
120 360.00 1200.02 186 656 1.100 10000.000 0.000 -1.176
121 363.00 1200.02 184 618 1.100 10000.000 0.000 -1.176
122 366.00 1200.02 184 644 1.100 10000.000 0.000 -1.176
123 369.00 1200.02 197 621 1.100 10000.000 0.000 -1.176
124 372.00 1200.02 175 610 1.100 10000.000 0.000 -1.176
125 375.00 1200.02 178 590 1.100 10000.000 0.000 -1.176
126 378.00 1200.02 165 574 1.100 10000.000 0.000 -1.176
127 381.00 1200.02 184 568 1.100 10000.000 0.000 -1.176
128 384.00 1200.02 170 582 1.100 10000.000 0.000 -1.176
129 387.00 1200.02 182 561 1.100 10000.000 0.000 -1.176
130 390.00 1200.02 189 564 1.100 10000.000 0.000 -1.176
131 393.00 1200.02 192 571 1.100 10000.000 0.000 -1.176
132 396.00 1200.02 237 543 1.100 10000.000 0.000 -1.176
133 399.00 1200.02 203 537 1.100 10000.000 0.000 -1.176
134 402.00 1200.02 217 563 1.100 10000.000 0.000 -1.176
135 405.00 1200.02 224 625 1.100 10000.000 0.000 -1.176
136 408.00 1200.02 206 640 1.100 10000.000 0.000 -1.176
137 411.00 1200.02 228 618 1.100 10000.000 0.000 -1.176
138 414.00 1200.02 204 667 1.100 10000.000 0.000 -1.176
139 417.00 1200.02 187 634 1.100 10000.000 0.000 -1.176
140 420.00 1200.02 230 650 1.100 10000.000 0.000 -1.176
141 423.00 1200.02 207 667 1.100 10000.000 0.000 -1.176
142 426.00 1200.02 201 693 1.100 10000.000 0.000 -1.176
143 429.00 1200.02 192 669 1.100 10000.000 0.000 -1.176
144 432.00 1200.02 189 738 1.100 10000.000 0.000 -1.176
