# BinNR microsec tot-time (s)  O-Beam AUX Ampl(V) f(Hz) phase(deg) chi(pos)
0 0.00 1200.00 186 447 1.100 10000.000 0.000 -0.516
1 3.00 1200.00 356 945 1.100 10000.000 0.000 -0.516
2 6.00 1200.00 357 929 1.100 10000.000 0.000 -0.516
3 9.00 1200.00 354 881 1.100 10000.000 0.000 -0.516
4 12.00 1200.00 353 956 1.100 10000.000 0.000 -0.516
5 15.00 1200.00 399 926 1.100 10000.000 0.000 -0.516
6 18.00 1200.00 341 922 1.100 10000.000 0.000 -0.516
7 21.00 1200.00 380 903 1.100 10000.000 0.000 -0.516
8 24.00 1200.00 339 969 1.100 10000.000 0.000 -0.516
9 27.00 1200.00 354 946 1.100 10000.000 0.000 -0.516
10 30.00 1200.00 363 952 1.100 10000.000 0.000 -0.516
11 33.00 1200.00 366 961 1.100 10000.000 0.000 -0.516
12 36.00 1200.00 332 921 1.100 10000.000 0.000 -0.516
13 39.00 1200.00 334 879 1.100 10000.000 0.000 -0.516
14 42.00 1200.00 365 926 1.100 10000.000 0.000 -0.516
15 45.00 1200.00 357 912 1.100 10000.000 0.000 -0.516
16 48.00 1200.00 371 905 1.100 10000.000 0.000 -0.516
17 51.00 1200.00 353 883 1.100 10000.000 0.000 -0.516
18 54.00 1200.00 356 952 1.100 10000.000 0.000 -0.516
19 57.00 1200.00 370 883 1.100 10000.000 0.000 -0.516
20 60.00 1200.00 365 887 1.100 10000.000 0.000 -0.516
21 63.00 1200.00 341 1005 1.100 10000.000 0.000 -0.516
22 66.00 1200.00 346 982 1.100 10000.000 0.000 -0.516
23 69.00 1200.00 326 957 1.100 10000.000 0.000 -0.516
24 72.00 1200.00 341 920 1.100 10000.000 0.000 -0.516
25 75.00 1200.00 336 970 1.100 10000.000 0.000 -0.516
26 78.00 1200.00 346 973 1.100 10000.000 0.000 -0.516
27 81.00 1200.00 369 946 1.100 10000.000 0.000 -0.516
28 84.00 1200.00 360 960 1.100 10000.000 0.000 -0.516
29 87.00 1200.00 344 950 1.100 10000.000 0.000 -0.516
30 90.00 1200.00 344 935 1.100 10000.000 0.000 -0.516
31 93.00 1200.00 347 938 1.100 10000.000 0.000 -0.516
32 96.00 1200.00 330 944 1.100 10000.000 0.000 -0.516
33 99.00 1200.00 358 962 1.100 10000.000 0.000 -0.516
34 102.00 1200.00 360 927 1.100 10000.000 0.000 -0.516
35 105.00 1200.00 355 976 1.100 10000.000 0.000 -0.516
36 108.00 1200.00 340 1018 1.100 10000.000 0.000 -0.516
37 111.00 1200.00 328 925 1.100 10000.000 0.000 -0.516
38 114.00 1200.00 349 968 1.100 10000.000 0.000 -0.516
39 117.00 1200.00 326 948 1.100 10000.000 0.000 -0.516
40 120.00 1200.00 332 929 1.100 10000.000 0.000 -0.516
41 123.00 1200.00 343 929 1.100 10000.000 0.000 -0.516
42 126.00 1200.00 373 934 1.100 10000.000 0.000 -0.516
43 129.00 1200.00 395 904 1.100 10000.000 0.000 -0.516
44 132.00 1200.00 373 959 1.100 10000.000 0.000 -0.516
45 135.00 1200.00 337 898 1.100 10000.000 0.000 -0.516
46 138.00 1200.00 377 899 1.100 10000.000 0.000 -0.516
47 141.00 1200.00 358 881 1.100 10000.000 0.000 -0.516
48 144.00 1200.00 329 900 1.100 10000.000 0.000 -0.516
49 147.00 1200.00 336 866 1.100 10000.000 0.000 -0.516
50 150.00 1200.00 333 872 1.100 10000.000 0.000 -0.516
51 153.00 1200.00 312 898 1.100 10000.000 0.000 -0.516
52 156.00 1200.00 331 871 1.100 10000.000 0.000 -0.516
53 159.00 1200.00 314 918 1.100 10000.000 0.000 -0.516
54 162.00 1200.00 366 952 1.100 10000.000 0.000 -0.516
55 165.00 1200.00 326 932 1.100 10000.000 0.000 -0.516
56 168.00 1200.00 343 925 1.100 10000.000 0.000 -0.516
57 171.00 1200.00 349 979 1.100 10000.000 0.000 -0.516
58 174.00 1200.00 347 999 1.100 10000.000 0.000 -0.516
59 177.00 1200.00 382 1019 1.100 10000.000 0.000 -0.516
60 180.00 1200.00 355 1017 1.100 10000.000 0.000 -0.516
61 183.00 1200.00 312 944 1.100 10000.000 0.000 -0.516
62 186.00 1200.00 332 977 1.100 10000.000 0.000 -0.516
63 189.00 1200.00 317 926 1.100 10000.000 0.000 -0.516
64 192.00 1200.00 320 956 1.100 10000.000 0.000 -0.516
65 195.00 1200.00 349 985 1.100 10000.000 0.000 -0.516
66 198.00 1200.00 362 914 1.100 10000.000 0.000 -0.516
67 201.00 1200.00 363 906 1.100 10000.000 0.000 -0.516
68 204.00 1200.00 375 974 1.100 10000.000 0.000 -0.516
69 207.00 1200.00 365 1003 1.100 10000.000 0.000 -0.516
70 210.00 1200.00 361 972 1.100 10000.000 0.000 -0.516
71 213.00 1200.00 367 932 1.100 10000.000 0.000 -0.516
72 216.00 1200.00 338 954 1.100 10000.000 0.000 -0.516
73 219.00 1200.00 333 918 1.100 10000.000 0.000 -0.516
74 222.00 1200.00 358 888 1.100 10000.000 0.000 -0.516
75 225.00 1200.00 352 907 1.100 10000.000 0.000 -0.516
76 228.00 1200.00 362 881 1.100 10000.000 0.000 -0.516
77 231.00 1200.00 348 923 1.100 10000.000 0.000 -0.516
78 234.00 1200.00 338 878 1.100 10000.000 0.000 -0.516
79 237.00 1200.00 335 910 1.100 10000.000 0.000 -0.516
80 240.00 1200.00 357 869 1.100 10000.000 0.000 -0.516
81 243.00 1200.00 321 914 1.100 10000.000 0.000 -0.516
82 246.00 1200.00 311 871 1.100 10000.000 0.000 -0.516
83 249.00 1200.00 337 852 1.100 10000.000 0.000 -0.516
84 252.00 1200.00 362 869 1.100 10000.000 0.000 -0.516
85 255.00 1200.00 332 932 1.100 10000.000 0.000 -0.516
86 258.00 1200.00 341 971 1.100 10000.000 0.000 -0.516
87 261.00 1200.00 347 901 1.100 10000.000 0.000 -0.516
88 264.00 1200.00 340 955 1.100 10000.000 0.000 -0.516
89 267.00 1200.00 367 924 1.100 10000.000 0.000 -0.516
90 270.00 1200.00 373 960 1.100 10000.000 0.000 -0.516
91 273.00 1200.00 339 969 1.100 10000.000 0.000 -0.516
92 276.00 1200.00 348 971 1.100 10000.000 0.000 -0.516
93 279.00 1200.00 324 963 1.100 10000.000 0.000 -0.516
94 282.00 1200.00 388 983 1.100 10000.000 0.000 -0.516
95 285.00 1200.00 362 974 1.100 10000.000 0.000 -0.516
96 288.00 1200.00 359 1015 1.100 10000.000 0.000 -0.516
97 291.00 1200.00 375 1004 1.100 10000.000 0.000 -0.516
98 294.00 1200.00 357 963 1.100 10000.000 0.000 -0.516
99 297.00 1200.00 349 904 1.100 10000.000 0.000 -0.516
100 300.00 1200.00 340 982 1.100 10000.000 0.000 -0.516
101 303.00 1200.00 327 941 1.100 10000.000 0.000 -0.516
102 306.00 1200.00 384 997 1.100 10000.000 0.000 -0.516
103 309.00 1200.00 377 922 1.100 10000.000 0.000 -0.516
104 312.00 1200.00 371 961 1.100 10000.000 0.000 -0.516
105 315.00 1200.00 319 910 1.100 10000.000 0.000 -0.516
106 318.00 1200.00 330 922 1.100 10000.000 0.000 -0.516
107 321.00 1200.00 376 903 1.100 10000.000 0.000 -0.516
108 324.00 1200.00 318 919 1.100 10000.000 0.000 -0.516
109 327.00 1200.00 338 818 1.100 10000.000 0.000 -0.516
110 330.00 1200.00 372 853 1.100 10000.000 0.000 -0.516
111 333.00 1200.00 369 845 1.100 10000.000 0.000 -0.516
112 336.00 1200.00 360 874 1.100 10000.000 0.000 -0.516
113 339.00 1200.00 340 849 1.100 10000.000 0.000 -0.516
114 342.00 1200.00 339 886 1.100 10000.000 0.000 -0.516
115 345.00 1200.00 364 858 1.100 10000.000 0.000 -0.516
116 348.00 1200.00 378 914 1.100 10000.000 0.000 -0.516
117 351.00 1200.00 300 894 1.100 10000.000 0.000 -0.516
118 354.00 1200.00 355 892 1.100 10000.000 0.000 -0.516
119 357.00 1200.00 328 913 1.100 10000.000 0.000 -0.516
120 360.00 1200.00 361 873 1.100 10000.000 0.000 -0.516
121 363.00 1200.00 325 987 1.100 10000.000 0.000 -0.516
122 366.00 1200.00 350 975 1.100 10000.000 0.000 -0.516
123 369.00 1200.00 350 934 1.100 10000.000 0.000 -0.516
124 372.00 1200.00 400 991 1.100 10000.000 0.000 -0.516
125 375.00 1200.00 350 960 1.100 10000.000 0.000 -0.516
126 378.00 1200.00 334 976 1.100 10000.000 0.000 -0.516
127 381.00 1200.00 303 986 1.100 10000.000 0.000 -0.516
128 384.00 1200.00 360 984 1.100 10000.000 0.000 -0.516
129 387.00 1200.00 343 987 1.100 10000.000 0.000 -0.516
130 390.00 1200.00 358 1032 1.100 10000.000 0.000 -0.516
131 393.00 1200.00 327 995 1.100 10000.000 0.000 -0.516
132 396.00 1200.00 345 1026 1.100 10000.000 0.000 -0.516
133 399.00 1200.00 361 956 1.100 10000.000 0.000 -0.516
134 402.00 1200.00 318 943 1.100 10000.000 0.000 -0.516
135 405.00 1200.00 339 904 1.100 10000.000 0.000 -0.516
136 408.00 1200.00 345 1003 1.100 10000.000 0.000 -0.516
137 411.00 1200.00 333 947 1.100 10000.000 0.000 -0.516
138 414.00 1200.00 350 898 1.100 10000.000 0.000 -0.516
139 417.00 1200.00 333 922 1.100 10000.000 0.000 -0.516
140 420.00 1200.00 373 924 1.100 10000.000 0.000 -0.516
141 423.00 1200.00 326 930 1.100 10000.000 0.000 -0.516
142 426.00 1200.00 346 952 1.100 10000.000 0.000 -0.516
143 429.00 1200.00 327 812 1.100 10000.000 0.000 -0.516
144 432.00 1200.00 369 888 1.100 10000.000 0.000 -0.516
