# BinNR microsec tot-time (s)  O-Beam AUX Ampl(V) f(Hz) phase(deg) chi(pos)
0 0.00 1200.01 124 456 1.100 10000.000 0.000 -1.000
1 3.00 1200.01 237 815 1.100 10000.000 0.000 -1.000
2 6.00 1200.01 268 868 1.100 10000.000 0.000 -1.000
3 9.00 1200.01 260 873 1.100 10000.000 0.000 -1.000
4 12.00 1200.01 230 870 1.100 10000.000 0.000 -1.000
5 15.00 1200.01 228 816 1.100 10000.000 0.000 -1.000
6 18.00 1200.01 248 792 1.100 10000.000 0.000 -1.000
7 21.00 1200.01 238 790 1.100 10000.000 0.000 -1.000
8 24.00 1200.01 255 841 1.100 10000.000 0.000 -1.000
9 27.00 1200.01 246 876 1.100 10000.000 0.000 -1.000
10 30.00 1200.01 252 873 1.100 10000.000 0.000 -1.000
11 33.00 1200.01 212 809 1.100 10000.000 0.000 -1.000
12 36.00 1200.01 251 882 1.100 10000.000 0.000 -1.000
13 39.00 1200.01 253 837 1.100 10000.000 0.000 -1.000
14 42.00 1200.01 229 910 1.100 10000.000 0.000 -1.000
15 45.00 1200.01 250 872 1.100 10000.000 0.000 -1.000
16 48.00 1200.01 275 862 1.100 10000.000 0.000 -1.000
17 51.00 1200.01 234 872 1.100 10000.000 0.000 -1.000
18 54.00 1200.01 260 877 1.100 10000.000 0.000 -1.000
19 57.00 1200.01 264 838 1.100 10000.000 0.000 -1.000
20 60.00 1200.01 278 803 1.100 10000.000 0.000 -1.000
21 63.00 1200.01 301 824 1.100 10000.000 0.000 -1.000
22 66.00 1200.01 266 841 1.100 10000.000 0.000 -1.000
23 69.00 1200.01 310 835 1.100 10000.000 0.000 -1.000
24 72.00 1200.01 267 815 1.100 10000.000 0.000 -1.000
25 75.00 1200.01 259 766 1.100 10000.000 0.000 -1.000
26 78.00 1200.01 256 817 1.100 10000.000 0.000 -1.000
27 81.00 1200.01 298 771 1.100 10000.000 0.000 -1.000
28 84.00 1200.01 280 799 1.100 10000.000 0.000 -1.000
29 87.00 1200.01 262 724 1.100 10000.000 0.000 -1.000
30 90.00 1200.01 247 752 1.100 10000.000 0.000 -1.000
31 93.00 1200.01 240 801 1.100 10000.000 0.000 -1.000
32 96.00 1200.01 262 831 1.100 10000.000 0.000 -1.000
33 99.00 1200.01 237 769 1.100 10000.000 0.000 -1.000
34 102.00 1200.01 249 805 1.100 10000.000 0.000 -1.000
35 105.00 1200.01 261 792 1.100 10000.000 0.000 -1.000
36 108.00 1200.01 257 845 1.100 10000.000 0.000 -1.000
37 111.00 1200.01 216 811 1.100 10000.000 0.000 -1.000
38 114.00 1200.01 224 805 1.100 10000.000 0.000 -1.000
39 117.00 1200.01 233 849 1.100 10000.000 0.000 -1.000
40 120.00 1200.01 232 867 1.100 10000.000 0.000 -1.000
41 123.00 1200.01 196 851 1.100 10000.000 0.000 -1.000
42 126.00 1200.01 256 872 1.100 10000.000 0.000 -1.000
43 129.00 1200.01 234 876 1.100 10000.000 0.000 -1.000
44 132.00 1200.01 247 920 1.100 10000.000 0.000 -1.000
45 135.00 1200.01 222 883 1.100 10000.000 0.000 -1.000
46 138.00 1200.01 246 848 1.100 10000.000 0.000 -1.000
47 141.00 1200.01 221 903 1.100 10000.000 0.000 -1.000
48 144.00 1200.01 239 917 1.100 10000.000 0.000 -1.000
49 147.00 1200.01 256 906 1.100 10000.000 0.000 -1.000
50 150.00 1200.01 253 838 1.100 10000.000 0.000 -1.000
51 153.00 1200.01 237 858 1.100 10000.000 0.000 -1.000
52 156.00 1200.01 293 877 1.100 10000.000 0.000 -1.000
53 159.00 1200.01 249 830 1.100 10000.000 0.000 -1.000
54 162.00 1200.01 270 882 1.100 10000.000 0.000 -1.000
55 165.00 1200.01 244 833 1.100 10000.000 0.000 -1.000
56 168.00 1200.01 257 798 1.100 10000.000 0.000 -1.000
57 171.00 1200.01 257 867 1.100 10000.000 0.000 -1.000
58 174.00 1200.01 288 831 1.100 10000.000 0.000 -1.000
59 177.00 1200.01 271 769 1.100 10000.000 0.000 -1.000
60 180.00 1200.01 254 710 1.100 10000.000 0.000 -1.000
61 183.00 1200.01 276 761 1.100 10000.000 0.000 -1.000
62 186.00 1200.01 272 761 1.100 10000.000 0.000 -1.000
63 189.00 1200.01 260 779 1.100 10000.000 0.000 -1.000
64 192.00 1200.01 271 813 1.100 10000.000 0.000 -1.000
65 195.00 1200.01 273 757 1.100 10000.000 0.000 -1.000
66 198.00 1200.01 293 769 1.100 10000.000 0.000 -1.000
67 201.00 1200.01 228 802 1.100 10000.000 0.000 -1.000
68 204.00 1200.01 244 831 1.100 10000.000 0.000 -1.000
69 207.00 1200.01 233 793 1.100 10000.000 0.000 -1.000
70 210.00 1200.01 251 795 1.100 10000.000 0.000 -1.000
71 213.00 1200.01 242 888 1.100 10000.000 0.000 -1.000
72 216.00 1200.01 227 834 1.100 10000.000 0.000 -1.000
73 219.00 1200.01 224 849 1.100 10000.000 0.000 -1.000
74 222.00 1200.01 271 867 1.100 10000.000 0.000 -1.000
75 225.00 1200.01 220 850 1.100 10000.000 0.000 -1.000
76 228.00 1200.01 268 917 1.100 10000.000 0.000 -1.000
77 231.00 1200.01 225 906 1.100 10000.000 0.000 -1.000
78 234.00 1200.01 230 854 1.100 10000.000 0.000 -1.000
79 237.00 1200.01 237 886 1.100 10000.000 0.000 -1.000
80 240.00 1200.01 230 864 1.100 10000.000 0.000 -1.000
81 243.00 1200.01 237 914 1.100 10000.000 0.000 -1.000
82 246.00 1200.01 248 886 1.100 10000.000 0.000 -1.000
83 249.00 1200.01 262 860 1.100 10000.000 0.000 -1.000
84 252.00 1200.01 238 862 1.100 10000.000 0.000 -1.000
85 255.00 1200.01 243 850 1.100 10000.000 0.000 -1.000
86 258.00 1200.01 260 837 1.100 10000.000 0.000 -1.000
87 261.00 1200.01 246 851 1.100 10000.000 0.000 -1.000
88 264.00 1200.01 304 815 1.100 10000.000 0.000 -1.000
89 267.00 1200.01 284 801 1.100 10000.000 0.000 -1.000
90 270.00 1200.01 322 847 1.100 10000.000 0.000 -1.000
91 273.00 1200.01 265 798 1.100 10000.000 0.000 -1.000
92 276.00 1200.01 285 794 1.100 10000.000 0.000 -1.000
93 279.00 1200.01 241 748 1.100 10000.000 0.000 -1.000
94 282.00 1200.01 284 774 1.100 10000.000 0.000 -1.000
95 285.00 1200.01 271 781 1.100 10000.000 0.000 -1.000
96 288.00 1200.01 247 741 1.100 10000.000 0.000 -1.000
97 291.00 1200.01 241 763 1.100 10000.000 0.000 -1.000
98 294.00 1200.01 277 821 1.100 10000.000 0.000 -1.000
99 297.00 1200.01 249 784 1.100 10000.000 0.000 -1.000
100 300.00 1200.01 257 796 1.100 10000.000 0.000 -1.000
101 303.00 1200.01 257 823 1.100 10000.000 0.000 -1.000
102 306.00 1200.01 268 807 1.100 10000.000 0.000 -1.000
103 309.00 1200.01 244 758 1.100 10000.000 0.000 -1.000
104 312.00 1200.01 273 805 1.100 10000.000 0.000 -1.000
105 315.00 1200.01 260 836 1.100 10000.000 0.000 -1.000
106 318.00 1200.01 242 804 1.100 10000.000 0.000 -1.000
107 321.00 1200.01 275 845 1.100 10000.000 0.000 -1.000
108 324.00 1200.01 278 873 1.100 10000.000 0.000 -1.000
109 327.00 1200.01 287 862 1.100 10000.000 0.000 -1.000
110 330.00 1200.01 269 946 1.100 10000.000 0.000 -1.000
111 333.00 1200.01 272 897 1.100 10000.000 0.000 -1.000
112 336.00 1200.01 279 947 1.100 10000.000 0.000 -1.000
113 339.00 1200.01 231 904 1.100 10000.000 0.000 -1.000
114 342.00 1200.01 232 935 1.100 10000.000 0.000 -1.000
115 345.00 1200.01 227 873 1.100 10000.000 0.000 -1.000
116 348.00 1200.01 242 863 1.100 10000.000 0.000 -1.000
117 351.00 1200.01 239 845 1.100 10000.000 0.000 -1.000
118 354.00 1200.01 223 880 1.100 10000.000 0.000 -1.000
119 357.00 1200.01 227 875 1.100 10000.000 0.000 -1.000
120 360.00 1200.01 252 848 1.100 10000.000 0.000 -1.000
121 363.00 1200.01 246 828 1.100 10000.000 0.000 -1.000
122 366.00 1200.01 237 884 1.100 10000.000 0.000 -1.000
123 369.00 1200.01 232 784 1.100 10000.000 0.000 -1.000
124 372.00 1200.01 243 817 1.100 10000.000 0.000 -1.000
125 375.00 1200.01 237 863 1.100 10000.000 0.000 -1.000
126 378.00 1200.01 276 742 1.100 10000.000 0.000 -1.000
127 381.00 1200.01 236 781 1.100 10000.000 0.000 -1.000
128 384.00 1200.01 279 771 1.100 10000.000 0.000 -1.000
129 387.00 1200.01 258 764 1.100 10000.000 0.000 -1.000
130 390.00 1200.01 261 751 1.100 10000.000 0.000 -1.000
131 393.00 1200.01 297 743 1.100 10000.000 0.000 -1.000
132 396.00 1200.01 288 813 1.100 10000.000 0.000 -1.000
133 399.00 1200.01 265 831 1.100 10000.000 0.000 -1.000
134 402.00 1200.01 258 793 1.100 10000.000 0.000 -1.000
135 405.00 1200.01 257 765 1.100 10000.000 0.000 -1.000
136 408.00 1200.01 309 822 1.100 10000.000 0.000 -1.000
137 411.00 1200.01 259 786 1.100 10000.000 0.000 -1.000
138 414.00 1200.01 325 869 1.100 10000.000 0.000 -1.000
139 417.00 1200.01 256 801 1.100 10000.000 0.000 -1.000
140 420.00 1200.01 271 873 1.100 10000.000 0.000 -1.000
141 423.00 1200.01 257 831 1.100 10000.000 0.000 -1.000
142 426.00 1200.01 285 845 1.100 10000.000 0.000 -1.000
143 429.00 1200.01 296 823 1.100 10000.000 0.000 -1.000
144 432.00 1200.01 259 896 1.100 10000.000 0.000 -1.000
