# BinNR microsec tot-time (s)  O-Beam AUX Ampl(V) f(Hz) phase(deg) chi(pos)
0 0.00 1200.01 64 248 1.100 10000.000 0.000 -1.329
1 3.00 1200.01 136 465 1.100 10000.000 0.000 -1.329
2 6.00 1200.01 141 476 1.100 10000.000 0.000 -1.329
3 9.00 1200.01 128 424 1.100 10000.000 0.000 -1.329
4 12.00 1200.01 105 427 1.100 10000.000 0.000 -1.329
5 15.00 1200.01 146 423 1.100 10000.000 0.000 -1.329
6 18.00 1200.01 125 439 1.100 10000.000 0.000 -1.329
7 21.00 1200.01 112 400 1.100 10000.000 0.000 -1.329
8 24.00 1200.01 110 447 1.100 10000.000 0.000 -1.329
9 27.00 1200.01 134 435 1.100 10000.000 0.000 -1.329
10 30.00 1200.01 123 408 1.100 10000.000 0.000 -1.329
11 33.00 1200.01 130 420 1.100 10000.000 0.000 -1.329
12 36.00 1200.01 121 480 1.100 10000.000 0.000 -1.329
13 39.00 1200.01 115 514 1.100 10000.000 0.000 -1.329
14 42.00 1200.01 127 472 1.100 10000.000 0.000 -1.329
15 45.00 1200.01 143 520 1.100 10000.000 0.000 -1.329
16 48.00 1200.01 141 551 1.100 10000.000 0.000 -1.329
17 51.00 1200.01 145 499 1.100 10000.000 0.000 -1.329
18 54.00 1200.01 112 542 1.100 10000.000 0.000 -1.329
19 57.00 1200.01 138 457 1.100 10000.000 0.000 -1.329
20 60.00 1200.01 120 427 1.100 10000.000 0.000 -1.329
21 63.00 1200.01 140 432 1.100 10000.000 0.000 -1.329
22 66.00 1200.01 181 447 1.100 10000.000 0.000 -1.329
23 69.00 1200.01 161 402 1.100 10000.000 0.000 -1.329
24 72.00 1200.01 141 388 1.100 10000.000 0.000 -1.329
25 75.00 1200.01 153 365 1.100 10000.000 0.000 -1.329
26 78.00 1200.01 156 369 1.100 10000.000 0.000 -1.329
27 81.00 1200.01 197 381 1.100 10000.000 0.000 -1.329
28 84.00 1200.01 146 348 1.100 10000.000 0.000 -1.329
29 87.00 1200.01 164 348 1.100 10000.000 0.000 -1.329
30 90.00 1200.01 158 378 1.100 10000.000 0.000 -1.329
31 93.00 1200.01 134 379 1.100 10000.000 0.000 -1.329
32 96.00 1200.01 140 409 1.100 10000.000 0.000 -1.329
33 99.00 1200.01 148 386 1.100 10000.000 0.000 -1.329
34 102.00 1200.01 128 411 1.100 10000.000 0.000 -1.329
35 105.00 1200.01 138 398 1.100 10000.000 0.000 -1.329
36 108.00 1200.01 142 412 1.100 10000.000 0.000 -1.329
37 111.00 1200.01 135 406 1.100 10000.000 0.000 -1.329
38 114.00 1200.01 133 468 1.100 10000.000 0.000 -1.329
39 117.00 1200.01 109 452 1.100 10000.000 0.000 -1.329
40 120.00 1200.01 116 466 1.100 10000.000 0.000 -1.329
41 123.00 1200.01 122 462 1.100 10000.000 0.000 -1.329
42 126.00 1200.01 120 534 1.100 10000.000 0.000 -1.329
43 129.00 1200.01 123 516 1.100 10000.000 0.000 -1.329
44 132.00 1200.01 134 513 1.100 10000.000 0.000 -1.329
45 135.00 1200.01 108 485 1.100 10000.000 0.000 -1.329
46 138.00 1200.01 113 508 1.100 10000.000 0.000 -1.329
47 141.00 1200.01 146 480 1.100 10000.000 0.000 -1.329
48 144.00 1200.01 124 487 1.100 10000.000 0.000 -1.329
49 147.00 1200.01 131 509 1.100 10000.000 0.000 -1.329
50 150.00 1200.01 145 500 1.100 10000.000 0.000 -1.329
51 153.00 1200.01 136 494 1.100 10000.000 0.000 -1.329
52 156.00 1200.01 151 453 1.100 10000.000 0.000 -1.329
53 159.00 1200.01 131 455 1.100 10000.000 0.000 -1.329
54 162.00 1200.01 148 426 1.100 10000.000 0.000 -1.329
55 165.00 1200.01 127 396 1.100 10000.000 0.000 -1.329
56 168.00 1200.01 166 459 1.100 10000.000 0.000 -1.329
57 171.00 1200.01 165 401 1.100 10000.000 0.000 -1.329
58 174.00 1200.01 158 426 1.100 10000.000 0.000 -1.329
59 177.00 1200.01 134 420 1.100 10000.000 0.000 -1.329
60 180.00 1200.01 163 366 1.100 10000.000 0.000 -1.329
61 183.00 1200.01 152 348 1.100 10000.000 0.000 -1.329
62 186.00 1200.01 144 362 1.100 10000.000 0.000 -1.329
63 189.00 1200.01 130 378 1.100 10000.000 0.000 -1.329
64 192.00 1200.01 142 340 1.100 10000.000 0.000 -1.329
65 195.00 1200.01 132 357 1.100 10000.000 0.000 -1.329
66 198.00 1200.01 144 370 1.100 10000.000 0.000 -1.329
67 201.00 1200.01 141 374 1.100 10000.000 0.000 -1.329
68 204.00 1200.01 146 355 1.100 10000.000 0.000 -1.329
69 207.00 1200.01 151 431 1.100 10000.000 0.000 -1.329
70 210.00 1200.01 132 431 1.100 10000.000 0.000 -1.329
71 213.00 1200.01 130 425 1.100 10000.000 0.000 -1.329
72 216.00 1200.01 116 433 1.100 10000.000 0.000 -1.329
73 219.00 1200.01 137 439 1.100 10000.000 0.000 -1.329
74 222.00 1200.01 126 475 1.100 10000.000 0.000 -1.329
75 225.00 1200.01 128 492 1.100 10000.000 0.000 -1.329
76 228.00 1200.01 118 500 1.100 10000.000 0.000 -1.329
77 231.00 1200.01 109 510 1.100 10000.000 0.000 -1.329
78 234.00 1200.01 105 497 1.100 10000.000 0.000 -1.329
79 237.00 1200.01 117 540 1.100 10000.000 0.000 -1.329
80 240.00 1200.01 127 506 1.100 10000.000 0.000 -1.329
81 243.00 1200.01 103 503 1.100 10000.000 0.000 -1.329
82 246.00 1200.01 133 498 1.100 10000.000 0.000 -1.329
83 249.00 1200.01 131 521 1.100 10000.000 0.000 -1.329
84 252.00 1200.01 145 475 1.100 10000.000 0.000 -1.329
85 255.00 1200.01 148 484 1.100 10000.000 0.000 -1.329
86 258.00 1200.01 147 467 1.100 10000.000 0.000 -1.329
87 261.00 1200.01 134 479 1.100 10000.000 0.000 -1.329
88 264.00 1200.01 145 464 1.100 10000.000 0.000 -1.329
89 267.00 1200.01 144 445 1.100 10000.000 0.000 -1.329
90 270.00 1200.01 130 413 1.100 10000.000 0.000 -1.329
91 273.00 1200.01 148 366 1.100 10000.000 0.000 -1.329
92 276.00 1200.01 165 380 1.100 10000.000 0.000 -1.329
93 279.00 1200.01 135 353 1.100 10000.000 0.000 -1.329
94 282.00 1200.01 139 399 1.100 10000.000 0.000 -1.329
95 285.00 1200.01 144 404 1.100 10000.000 0.000 -1.329
96 288.00 1200.01 136 361 1.100 10000.000 0.000 -1.329
97 291.00 1200.01 133 375 1.100 10000.000 0.000 -1.329
98 294.00 1200.01 137 386 1.100 10000.000 0.000 -1.329
99 297.00 1200.01 127 333 1.100 10000.000 0.000 -1.329
100 300.00 1200.01 117 383 1.100 10000.000 0.000 -1.329
101 303.00 1200.01 134 372 1.100 10000.000 0.000 -1.329
102 306.00 1200.01 135 376 1.100 10000.000 0.000 -1.329
103 309.00 1200.01 145 392 1.100 10000.000 0.000 -1.329
104 312.00 1200.01 130 422 1.100 10000.000 0.000 -1.329
105 315.00 1200.01 147 453 1.100 10000.000 0.000 -1.329
106 318.00 1200.01 131 454 1.100 10000.000 0.000 -1.329
107 321.00 1200.01 165 515 1.100 10000.000 0.000 -1.329
108 324.00 1200.01 142 498 1.100 10000.000 0.000 -1.329
109 327.00 1200.01 136 518 1.100 10000.000 0.000 -1.329
110 330.00 1200.01 138 529 1.100 10000.000 0.000 -1.329
111 333.00 1200.01 148 482 1.100 10000.000 0.000 -1.329
112 336.00 1200.01 120 512 1.100 10000.000 0.000 -1.329
113 339.00 1200.01 122 484 1.100 10000.000 0.000 -1.329
114 342.00 1200.01 109 544 1.100 10000.000 0.000 -1.329
115 345.00 1200.01 118 496 1.100 10000.000 0.000 -1.329
116 348.00 1200.01 106 498 1.100 10000.000 0.000 -1.329
117 351.00 1200.01 133 461 1.100 10000.000 0.000 -1.329
118 354.00 1200.01 111 515 1.100 10000.000 0.000 -1.329
119 357.00 1200.01 127 453 1.100 10000.000 0.000 -1.329
120 360.00 1200.01 131 464 1.100 10000.000 0.000 -1.329
121 363.00 1200.01 109 424 1.100 10000.000 0.000 -1.329
122 366.00 1200.01 119 443 1.100 10000.000 0.000 -1.329
123 369.00 1200.01 122 402 1.100 10000.000 0.000 -1.329
124 372.00 1200.01 117 353 1.100 10000.000 0.000 -1.329
125 375.00 1200.01 131 393 1.100 10000.000 0.000 -1.329
126 378.00 1200.01 135 373 1.100 10000.000 0.000 -1.329
127 381.00 1200.01 116 369 1.100 10000.000 0.000 -1.329
128 384.00 1200.01 128 377 1.100 10000.000 0.000 -1.329
129 387.00 1200.01 135 370 1.100 10000.000 0.000 -1.329
130 390.00 1200.01 166 350 1.100 10000.000 0.000 -1.329
131 393.00 1200.01 126 379 1.100 10000.000 0.000 -1.329
132 396.00 1200.01 136 410 1.100 10000.000 0.000 -1.329
133 399.00 1200.01 145 354 1.100 10000.000 0.000 -1.329
134 402.00 1200.01 148 382 1.100 10000.000 0.000 -1.329
135 405.00 1200.01 138 381 1.100 10000.000 0.000 -1.329
136 408.00 1200.01 157 418 1.100 10000.000 0.000 -1.329
137 411.00 1200.01 156 366 1.100 10000.000 0.000 -1.329
138 414.00 1200.01 169 423 1.100 10000.000 0.000 -1.329
139 417.00 1200.01 137 513 1.100 10000.000 0.000 -1.329
140 420.00 1200.01 149 495 1.100 10000.000 0.000 -1.329
141 423.00 1200.01 147 481 1.100 10000.000 0.000 -1.329
142 426.00 1200.01 146 488 1.100 10000.000 0.000 -1.329
143 429.00 1200.01 142 509 1.100 10000.000 0.000 -1.329
144 432.00 1200.01 155 518 1.100 10000.000 0.000 -1.329
