# BinNR microsec tot-time (s)  O-Beam AUX Ampl(V) f(Hz) phase(deg) chi(pos)
0 0.00 1200.00 60 73 1.100 10000.000 0.000 0.165
1 3.00 1200.00 142 133 1.100 10000.000 0.000 0.165
2 6.00 1200.00 140 143 1.100 10000.000 0.000 0.165
3 9.00 1200.00 139 150 1.100 10000.000 0.000 0.165
4 12.00 1200.00 132 158 1.100 10000.000 0.000 0.165
5 15.00 1200.00 150 181 1.100 10000.000 0.000 0.165
6 18.00 1200.00 142 184 1.100 10000.000 0.000 0.165
7 21.00 1200.00 156 169 1.100 10000.000 0.000 0.165
8 24.00 1200.00 151 174 1.100 10000.000 0.000 0.165
9 27.00 1200.00 141 184 1.100 10000.000 0.000 0.165
10 30.00 1200.00 136 182 1.100 10000.000 0.000 0.165
11 33.00 1200.00 144 162 1.100 10000.000 0.000 0.165
12 36.00 1200.00 155 146 1.100 10000.000 0.000 0.165
13 39.00 1200.00 136 153 1.100 10000.000 0.000 0.165
14 42.00 1200.00 153 140 1.100 10000.000 0.000 0.165
15 45.00 1200.00 128 142 1.100 10000.000 0.000 0.165
16 48.00 1200.00 131 131 1.100 10000.000 0.000 0.165
17 51.00 1200.00 139 132 1.100 10000.000 0.000 0.165
18 54.00 1200.00 105 126 1.100 10000.000 0.000 0.165
19 57.00 1200.00 101 165 1.100 10000.000 0.000 0.165
20 60.00 1200.00 102 149 1.100 10000.000 0.000 0.165
21 63.00 1200.00 124 166 1.100 10000.000 0.000 0.165
22 66.00 1200.00 138 185 1.100 10000.000 0.000 0.165
23 69.00 1200.00 97 168 1.100 10000.000 0.000 0.165
24 72.00 1200.00 113 184 1.100 10000.000 0.000 0.165
25 75.00 1200.00 97 221 1.100 10000.000 0.000 0.165
26 78.00 1200.00 125 235 1.100 10000.000 0.000 0.165
27 81.00 1200.00 128 234 1.100 10000.000 0.000 0.165
28 84.00 1200.00 116 200 1.100 10000.000 0.000 0.165
29 87.00 1200.00 126 197 1.100 10000.000 0.000 0.165
30 90.00 1200.00 127 196 1.100 10000.000 0.000 0.165
31 93.00 1200.00 111 220 1.100 10000.000 0.000 0.165
32 96.00 1200.00 123 177 1.100 10000.000 0.000 0.165
33 99.00 1200.00 114 195 1.100 10000.000 0.000 0.165
34 102.00 1200.00 125 214 1.100 10000.000 0.000 0.165
35 105.00 1200.00 122 176 1.100 10000.000 0.000 0.165
36 108.00 1200.00 131 197 1.100 10000.000 0.000 0.165
37 111.00 1200.00 134 171 1.100 10000.000 0.000 0.165
38 114.00 1200.00 130 169 1.100 10000.000 0.000 0.165
39 117.00 1200.00 134 156 1.100 10000.000 0.000 0.165
40 120.00 1200.00 146 157 1.100 10000.000 0.000 0.165
41 123.00 1200.00 138 159 1.100 10000.000 0.000 0.165
42 126.00 1200.00 150 153 1.100 10000.000 0.000 0.165
43 129.00 1200.00 142 135 1.100 10000.000 0.000 0.165
44 132.00 1200.00 134 127 1.100 10000.000 0.000 0.165
45 135.00 1200.00 139 110 1.100 10000.000 0.000 0.165
46 138.00 1200.00 141 128 1.100 10000.000 0.000 0.165
47 141.00 1200.00 161 137 1.100 10000.000 0.000 0.165
48 144.00 1200.00 135 140 1.100 10000.000 0.000 0.165
49 147.00 1200.00 146 136 1.100 10000.000 0.000 0.165
50 150.00 1200.00 119 148 1.100 10000.000 0.000 0.165
51 153.00 1200.00 117 150 1.100 10000.000 0.000 0.165
52 156.00 1200.00 102 149 1.100 10000.000 0.000 0.165
53 159.00 1200.00 129 145 1.100 10000.000 0.000 0.165
54 162.00 1200.00 117 141 1.100 10000.000 0.000 0.165
55 165.00 1200.00 115 161 1.100 10000.000 0.000 0.165
56 168.00 1200.00 131 164 1.100 10000.000 0.000 0.165
57 171.00 1200.00 104 174 1.100 10000.000 0.000 0.165
58 174.00 1200.00 104 220 1.100 10000.000 0.000 0.165
59 177.00 1200.00 103 199 1.100 10000.000 0.000 0.165
60 180.00 1200.00 119 229 1.100 10000.000 0.000 0.165
61 183.00 1200.00 129 225 1.100 10000.000 0.000 0.165
62 186.00 1200.00 145 209 1.100 10000.000 0.000 0.165
63 189.00 1200.00 109 218 1.100 10000.000 0.000 0.165
64 192.00 1200.00 118 179 1.100 10000.000 0.000 0.165
65 195.00 1200.00 136 202 1.100 10000.000 0.000 0.165
66 198.00 1200.00 141 208 1.100 10000.000 0.000 0.165
67 201.00 1200.00 110 203 1.100 10000.000 0.000 0.165
68 204.00 1200.00 122 186 1.100 10000.000 0.000 0.165
69 207.00 1200.00 148 163 1.100 10000.000 0.000 0.165
70 210.00 1200.00 136 166 1.100 10000.000 0.000 0.165
71 213.00 1200.00 133 171 1.100 10000.000 0.000 0.165
72 216.00 1200.00 154 175 1.100 10000.000 0.000 0.165
73 219.00 1200.00 156 143 1.100 10000.000 0.000 0.165
74 222.00 1200.00 141 151 1.100 10000.000 0.000 0.165
75 225.00 1200.00 126 136 1.100 10000.000 0.000 0.165
76 228.00 1200.00 150 151 1.100 10000.000 0.000 0.165
77 231.00 1200.00 134 139 1.100 10000.000 0.000 0.165
78 234.00 1200.00 148 127 1.100 10000.000 0.000 0.165
79 237.00 1200.00 114 122 1.100 10000.000 0.000 0.165
80 240.00 1200.00 135 110 1.100 10000.000 0.000 0.165
81 243.00 1200.00 119 105 1.100 10000.000 0.000 0.165
82 246.00 1200.00 130 136 1.100 10000.000 0.000 0.165
83 249.00 1200.00 145 139 1.100 10000.000 0.000 0.165
84 252.00 1200.00 113 163 1.100 10000.000 0.000 0.165
85 255.00 1200.00 125 151 1.100 10000.000 0.000 0.165
86 258.00 1200.00 117 155 1.100 10000.000 0.000 0.165
87 261.00 1200.00 108 160 1.100 10000.000 0.000 0.165
88 264.00 1200.00 113 175 1.100 10000.000 0.000 0.165
89 267.00 1200.00 118 187 1.100 10000.000 0.000 0.165
90 270.00 1200.00 112 187 1.100 10000.000 0.000 0.165
91 273.00 1200.00 98 196 1.100 10000.000 0.000 0.165
92 276.00 1200.00 113 217 1.100 10000.000 0.000 0.165
93 279.00 1200.00 115 192 1.100 10000.000 0.000 0.165
94 282.00 1200.00 133 179 1.100 10000.000 0.000 0.165
95 285.00 1200.00 129 217 1.100 10000.000 0.000 0.165
96 288.00 1200.00 136 216 1.100 10000.000 0.000 0.165
97 291.00 1200.00 141 225 1.100 10000.000 0.000 0.165
98 294.00 1200.00 122 230 1.100 10000.000 0.000 0.165
99 297.00 1200.00 132 203 1.100 10000.000 0.000 0.165
100 300.00 1200.00 127 208 1.100 10000.000 0.000 0.165
101 303.00 1200.00 127 186 1.100 10000.000 0.000 0.165
102 306.00 1200.00 122 219 1.100 10000.000 0.000 0.165
103 309.00 1200.00 100 164 1.100 10000.000 0.000 0.165
104 312.00 1200.00 128 169 1.100 10000.000 0.000 0.165
105 315.00 1200.00 117 157 1.100 10000.000 0.000 0.165
106 318.00 1200.00 112 189 1.100 10000.000 0.000 0.165
107 321.00 1200.00 122 137 1.100 10000.000 0.000 0.165
108 324.00 1200.00 132 144 1.100 10000.000 0.000 0.165
109 327.00 1200.00 109 147 1.100 10000.000 0.000 0.165
110 330.00 1200.00 133 153 1.100 10000.000 0.000 0.165
111 333.00 1200.00 137 137 1.100 10000.000 0.000 0.165
112 336.00 1200.00 117 137 1.100 10000.000 0.000 0.165
113 339.00 1200.00 136 137 1.100 10000.000 0.000 0.165
114 342.00 1200.00 142 131 1.100 10000.000 0.000 0.165
115 345.00 1200.00 113 126 1.100 10000.000 0.000 0.165
116 348.00 1200.00 120 129 1.100 10000.000 0.000 0.165
117 351.00 1200.00 166 159 1.100 10000.000 0.000 0.165
118 354.00 1200.00 143 159 1.100 10000.000 0.000 0.165
119 357.00 1200.00 146 158 1.100 10000.000 0.000 0.165
120 360.00 1200.00 127 155 1.100 10000.000 0.000 0.165
121 363.00 1200.00 133 169 1.100 10000.000 0.000 0.165
122 366.00 1200.00 151 162 1.100 10000.000 0.000 0.165
123 369.00 1200.00 139 163 1.100 10000.000 0.000 0.165
124 372.00 1200.00 151 214 1.100 10000.000 0.000 0.165
125 375.00 1200.00 141 198 1.100 10000.000 0.000 0.165
126 378.00 1200.00 134 196 1.100 10000.000 0.000 0.165
127 381.00 1200.00 129 220 1.100 10000.000 0.000 0.165
128 384.00 1200.00 148 180 1.100 10000.000 0.000 0.165
129 387.00 1200.00 113 194 1.100 10000.000 0.000 0.165
130 390.00 1200.00 120 215 1.100 10000.000 0.000 0.165
131 393.00 1200.00 127 216 1.100 10000.000 0.000 0.165
132 396.00 1200.00 117 207 1.100 10000.000 0.000 0.165
133 399.00 1200.00 129 217 1.100 10000.000 0.000 0.165
134 402.00 1200.00 142 198 1.100 10000.000 0.000 0.165
135 405.00 1200.00 105 196 1.100 10000.000 0.000 0.165
136 408.00 1200.00 113 181 1.100 10000.000 0.000 0.165
137 411.00 1200.00 101 151 1.100 10000.000 0.000 0.165
138 414.00 1200.00 103 164 1.100 10000.000 0.000 0.165
139 417.00 1200.00 104 163 1.100 10000.000 0.000 0.165
140 420.00 1200.00 115 172 1.100 10000.000 0.000 0.165
141 423.00 1200.00 109 150 1.100 10000.000 0.000 0.165
142 426.00 1200.00 100 148 1.100 10000.000 0.000 0.165
143 429.00 1200.00 122 144 1.100 10000.000 0.000 0.165
144 432.00 1200.00 124 148 1.100 10000.000 0.000 0.165
