# BinNR microsec tot-time (s)  O-Beam AUX Ampl(V) f(Hz) phase(deg) chi(pos)
0 0.00 1200.00 101 326 2.000 10000.000 0.000 0.912
1 3.00 1200.00 232 633 2.000 10000.000 0.000 0.912
2 6.00 1200.00 204 628 2.000 10000.000 0.000 0.912
3 9.00 1200.00 184 617 2.000 10000.000 0.000 0.912
4 12.00 1200.00 163 676 2.000 10000.000 0.000 0.912
5 15.00 1200.00 165 642 2.000 10000.000 0.000 0.912
6 18.00 1200.00 159 633 2.000 10000.000 0.000 0.912
7 21.00 1200.00 161 559 2.000 10000.000 0.000 0.912
8 24.00 1200.00 153 603 2.000 10000.000 0.000 0.912
9 27.00 1200.00 138 549 2.000 10000.000 0.000 0.912
10 30.00 1200.00 145 513 2.000 10000.000 0.000 0.912
11 33.00 1200.00 148 472 2.000 10000.000 0.000 0.912
12 36.00 1200.00 121 502 2.000 10000.000 0.000 0.912
13 39.00 1200.00 131 464 2.000 10000.000 0.000 0.912
14 42.00 1200.00 151 479 2.000 10000.000 0.000 0.912
15 45.00 1200.00 149 449 2.000 10000.000 0.000 0.912
16 48.00 1200.00 122 488 2.000 10000.000 0.000 0.912
17 51.00 1200.00 126 464 2.000 10000.000 0.000 0.912
18 54.00 1200.00 137 457 2.000 10000.000 0.000 0.912
19 57.00 1200.00 160 440 2.000 10000.000 0.000 0.912
20 60.00 1200.00 157 495 2.000 10000.000 0.000 0.912
21 63.00 1200.00 176 520 2.000 10000.000 0.000 0.912
22 66.00 1200.00 177 525 2.000 10000.000 0.000 0.912
23 69.00 1200.00 181 533 2.000 10000.000 0.000 0.912
24 72.00 1200.00 197 605 2.000 10000.000 0.000 0.912
25 75.00 1200.00 171 604 2.000 10000.000 0.000 0.912
26 78.00 1200.00 193 628 2.000 10000.000 0.000 0.912
27 81.00 1200.00 210 632 2.000 10000.000 0.000 0.912
28 84.00 1200.00 221 671 2.000 10000.000 0.000 0.912
29 87.00 1200.00 196 620 2.000 10000.000 0.000 0.912
30 90.00 1200.00 244 628 2.000 10000.000 0.000 0.912
31 93.00 1200.00 192 622 2.000 10000.000 0.000 0.912
32 96.00 1200.00 196 636 2.000 10000.000 0.000 0.912
33 99.00 1200.00 227 622 2.000 10000.000 0.000 0.912
34 102.00 1200.00 218 573 2.000 10000.000 0.000 0.912
35 105.00 1200.00 181 593 2.000 10000.000 0.000 0.912
36 108.00 1200.00 177 647 2.000 10000.000 0.000 0.912
37 111.00 1200.00 166 642 2.000 10000.000 0.000 0.912
38 114.00 1200.00 195 657 2.000 10000.000 0.000 0.912
39 117.00 1200.00 184 594 2.000 10000.000 0.000 0.912
40 120.00 1200.00 167 618 2.000 10000.000 0.000 0.912
41 123.00 1200.00 168 631 2.000 10000.000 0.000 0.912
42 126.00 1200.00 156 570 2.000 10000.000 0.000 0.912
43 129.00 1200.00 152 616 2.000 10000.000 0.000 0.912
44 132.00 1200.00 160 537 2.000 10000.000 0.000 0.912
45 135.00 1200.00 139 482 2.000 10000.000 0.000 0.912
46 138.00 1200.00 155 487 2.000 10000.000 0.000 0.912
47 141.00 1200.00 135 440 2.000 10000.000 0.000 0.912
48 144.00 1200.00 148 421 2.000 10000.000 0.000 0.912
49 147.00 1200.00 125 418 2.000 10000.000 0.000 0.912
50 150.00 1200.00 125 408 2.000 10000.000 0.000 0.912
51 153.00 1200.00 142 429 2.000 10000.000 0.000 0.912
52 156.00 1200.00 136 463 2.000 10000.000 0.000 0.912
53 159.00 1200.00 134 470 2.000 10000.000 0.000 0.912
54 162.00 1200.00 170 458 2.000 10000.000 0.000 0.912
55 165.00 1200.00 160 550 2.000 10000.000 0.000 0.912
56 168.00 1200.00 182 557 2.000 10000.000 0.000 0.912
57 171.00 1200.00 182 582 2.000 10000.000 0.000 0.912
58 174.00 1200.00 176 642 2.000 10000.000 0.000 0.912
59 177.00 1200.00 187 636 2.000 10000.000 0.000 0.912
60 180.00 1200.00 201 656 2.000 10000.000 0.000 0.912
61 183.00 1200.00 182 614 2.000 10000.000 0.000 0.912
62 186.00 1200.00 212 608 2.000 10000.000 0.000 0.912
63 189.00 1200.00 197 627 2.000 10000.000 0.000 0.912
64 192.00 1200.00 229 614 2.000 10000.000 0.000 0.912
65 195.00 1200.00 207 635 2.000 10000.000 0.000 0.912
66 198.00 1200.00 207 634 2.000 10000.000 0.000 0.912
67 201.00 1200.00 199 629 2.000 10000.000 0.000 0.912
68 204.00 1200.00 205 621 2.000 10000.000 0.000 0.912
69 207.00 1200.00 192 606 2.000 10000.000 0.000 0.912
70 210.00 1200.00 219 623 2.000 10000.000 0.000 0.912
71 213.00 1200.00 181 647 2.000 10000.000 0.000 0.912
72 216.00 1200.00 183 667 2.000 10000.000 0.000 0.912
73 219.00 1200.00 199 635 2.000 10000.000 0.000 0.912
74 222.00 1200.00 173 546 2.000 10000.000 0.000 0.912
75 225.00 1200.00 158 626 2.000 10000.000 0.000 0.912
76 228.00 1200.00 139 580 2.000 10000.000 0.000 0.912
77 231.00 1200.00 153 534 2.000 10000.000 0.000 0.912
78 234.00 1200.00 147 464 2.000 10000.000 0.000 0.912
79 237.00 1200.00 139 500 2.000 10000.000 0.000 0.912
80 240.00 1200.00 152 458 2.000 10000.000 0.000 0.912
81 243.00 1200.00 133 461 2.000 10000.000 0.000 0.912
82 246.00 1200.00 131 440 2.000 10000.000 0.000 0.912
83 249.00 1200.00 131 427 2.000 10000.000 0.000 0.912
84 252.00 1200.00 131 439 2.000 10000.000 0.000 0.912
85 255.00 1200.00 140 434 2.000 10000.000 0.000 0.912
86 258.00 1200.00 130 456 2.000 10000.000 0.000 0.912
87 261.00 1200.00 153 422 2.000 10000.000 0.000 0.912
88 264.00 1200.00 148 492 2.000 10000.000 0.000 0.912
89 267.00 1200.00 158 541 2.000 10000.000 0.000 0.912
90 270.00 1200.00 164 614 2.000 10000.000 0.000 0.912
91 273.00 1200.00 161 597 2.000 10000.000 0.000 0.912
92 276.00 1200.00 189 611 2.000 10000.000 0.000 0.912
93 279.00 1200.00 190 589 2.000 10000.000 0.000 0.912
94 282.00 1200.00 193 609 2.000 10000.000 0.000 0.912
95 285.00 1200.00 186 573 2.000 10000.000 0.000 0.912
96 288.00 1200.00 208 648 2.000 10000.000 0.000 0.912
97 291.00 1200.00 196 682 2.000 10000.000 0.000 0.912
98 294.00 1200.00 194 625 2.000 10000.000 0.000 0.912
99 297.00 1200.00 196 641 2.000 10000.000 0.000 0.912
100 300.00 1200.00 218 601 2.000 10000.000 0.000 0.912
101 303.00 1200.00 165 507 2.000 10000.000 0.000 0.912
