# BinNR microsec tot-time (s)  O-Beam AUX Ampl(V) f(Hz) phase(deg) chi(pos)
0 0.00 1200.00 82 360 2.000 10000.000 0.000 -1.296
1 3.00 1200.00 203 643 2.000 10000.000 0.000 -1.296
2 6.00 1200.00 167 641 2.000 10000.000 0.000 -1.296
3 9.00 1200.00 173 624 2.000 10000.000 0.000 -1.296
4 12.00 1200.00 164 620 2.000 10000.000 0.000 -1.296
5 15.00 1200.00 155 597 2.000 10000.000 0.000 -1.296
6 18.00 1200.00 142 546 2.000 10000.000 0.000 -1.296
7 21.00 1200.00 149 488 2.000 10000.000 0.000 -1.296
8 24.00 1200.00 140 508 2.000 10000.000 0.000 -1.296
9 27.00 1200.00 131 495 2.000 10000.000 0.000 -1.296
10 30.00 1200.00 136 427 2.000 10000.000 0.000 -1.296
11 33.00 1200.00 126 388 2.000 10000.000 0.000 -1.296
12 36.00 1200.00 123 351 2.000 10000.000 0.000 -1.296
13 39.00 1200.00 121 387 2.000 10000.000 0.000 -1.296
14 42.00 1200.00 110 372 2.000 10000.000 0.000 -1.296
15 45.00 1200.00 119 365 2.000 10000.000 0.000 -1.296
16 48.00 1200.00 123 328 2.000 10000.000 0.000 -1.296
17 51.00 1200.00 121 381 2.000 10000.000 0.000 -1.296
18 54.00 1200.00 136 380 2.000 10000.000 0.000 -1.296
19 57.00 1200.00 133 348 2.000 10000.000 0.000 -1.296
20 60.00 1200.00 139 357 2.000 10000.000 0.000 -1.296
21 63.00 1200.00 127 420 2.000 10000.000 0.000 -1.296
22 66.00 1200.00 162 459 2.000 10000.000 0.000 -1.296
23 69.00 1200.00 138 435 2.000 10000.000 0.000 -1.296
24 72.00 1200.00 185 505 2.000 10000.000 0.000 -1.296
25 75.00 1200.00 178 543 2.000 10000.000 0.000 -1.296
26 78.00 1200.00 172 580 2.000 10000.000 0.000 -1.296
27 81.00 1200.00 199 574 2.000 10000.000 0.000 -1.296
28 84.00 1200.00 178 633 2.000 10000.000 0.000 -1.296
29 87.00 1200.00 191 623 2.000 10000.000 0.000 -1.296
30 90.00 1200.00 210 650 2.000 10000.000 0.000 -1.296
31 93.00 1200.00 198 656 2.000 10000.000 0.000 -1.296
32 96.00 1200.00 168 692 2.000 10000.000 0.000 -1.296
33 99.00 1200.00 217 667 2.000 10000.000 0.000 -1.296
34 102.00 1200.00 207 591 2.000 10000.000 0.000 -1.296
35 105.00 1200.00 178 623 2.000 10000.000 0.000 -1.296
36 108.00 1200.00 157 687 2.000 10000.000 0.000 -1.296
37 111.00 1200.00 193 634 2.000 10000.000 0.000 -1.296
38 114.00 1200.00 162 652 2.000 10000.000 0.000 -1.296
39 117.00 1200.00 155 606 2.000 10000.000 0.000 -1.296
40 120.00 1200.00 156 562 2.000 10000.000 0.000 -1.296
41 123.00 1200.00 153 572 2.000 10000.000 0.000 -1.296
42 126.00 1200.00 169 533 2.000 10000.000 0.000 -1.296
43 129.00 1200.00 120 460 2.000 10000.000 0.000 -1.296
44 132.00 1200.00 121 441 2.000 10000.000 0.000 -1.296
45 135.00 1200.00 121 415 2.000 10000.000 0.000 -1.296
46 138.00 1200.00 122 412 2.000 10000.000 0.000 -1.296
47 141.00 1200.00 108 354 2.000 10000.000 0.000 -1.296
48 144.00 1200.00 128 334 2.000 10000.000 0.000 -1.296
49 147.00 1200.00 119 282 2.000 10000.000 0.000 -1.296
50 150.00 1200.00 125 343 2.000 10000.000 0.000 -1.296
51 153.00 1200.00 113 342 2.000 10000.000 0.000 -1.296
52 156.00 1200.00 120 338 2.000 10000.000 0.000 -1.296
53 159.00 1200.00 113 390 2.000 10000.000 0.000 -1.296
54 162.00 1200.00 137 366 2.000 10000.000 0.000 -1.296
55 165.00 1200.00 139 458 2.000 10000.000 0.000 -1.296
56 168.00 1200.00 151 464 2.000 10000.000 0.000 -1.296
57 171.00 1200.00 164 502 2.000 10000.000 0.000 -1.296
58 174.00 1200.00 176 528 2.000 10000.000 0.000 -1.296
59 177.00 1200.00 199 536 2.000 10000.000 0.000 -1.296
60 180.00 1200.00 198 591 2.000 10000.000 0.000 -1.296
61 183.00 1200.00 171 605 2.000 10000.000 0.000 -1.296
62 186.00 1200.00 182 652 2.000 10000.000 0.000 -1.296
63 189.00 1200.00 167 648 2.000 10000.000 0.000 -1.296
64 192.00 1200.00 201 661 2.000 10000.000 0.000 -1.296
65 195.00 1200.00 196 646 2.000 10000.000 0.000 -1.296
66 198.00 1200.00 183 662 2.000 10000.000 0.000 -1.296
67 201.00 1200.00 185 707 2.000 10000.000 0.000 -1.296
68 204.00 1200.00 203 632 2.000 10000.000 0.000 -1.296
69 207.00 1200.00 190 624 2.000 10000.000 0.000 -1.296
70 210.00 1200.00 166 636 2.000 10000.000 0.000 -1.296
71 213.00 1200.00 162 595 2.000 10000.000 0.000 -1.296
72 216.00 1200.00 152 570 2.000 10000.000 0.000 -1.296
73 219.00 1200.00 153 567 2.000 10000.000 0.000 -1.296
74 222.00 1200.00 136 552 2.000 10000.000 0.000 -1.296
75 225.00 1200.00 154 553 2.000 10000.000 0.000 -1.296
76 228.00 1200.00 151 488 2.000 10000.000 0.000 -1.296
77 231.00 1200.00 145 431 2.000 10000.000 0.000 -1.296
78 234.00 1200.00 130 414 2.000 10000.000 0.000 -1.296
79 237.00 1200.00 133 383 2.000 10000.000 0.000 -1.296
80 240.00 1200.00 111 348 2.000 10000.000 0.000 -1.296
81 243.00 1200.00 113 355 2.000 10000.000 0.000 -1.296
82 246.00 1200.00 112 325 2.000 10000.000 0.000 -1.296
83 249.00 1200.00 107 295 2.000 10000.000 0.000 -1.296
84 252.00 1200.00 123 348 2.000 10000.000 0.000 -1.296
85 255.00 1200.00 109 329 2.000 10000.000 0.000 -1.296
86 258.00 1200.00 133 338 2.000 10000.000 0.000 -1.296
87 261.00 1200.00 136 378 2.000 10000.000 0.000 -1.296
88 264.00 1200.00 124 438 2.000 10000.000 0.000 -1.296
89 267.00 1200.00 122 445 2.000 10000.000 0.000 -1.296
90 270.00 1200.00 165 454 2.000 10000.000 0.000 -1.296
91 273.00 1200.00 136 480 2.000 10000.000 0.000 -1.296
92 276.00 1200.00 151 535 2.000 10000.000 0.000 -1.296
93 279.00 1200.00 165 552 2.000 10000.000 0.000 -1.296
94 282.00 1200.00 210 624 2.000 10000.000 0.000 -1.296
95 285.00 1200.00 207 653 2.000 10000.000 0.000 -1.296
96 288.00 1200.00 190 631 2.000 10000.000 0.000 -1.296
97 291.00 1200.00 187 645 2.000 10000.000 0.000 -1.296
98 294.00 1200.00 193 673 2.000 10000.000 0.000 -1.296
99 297.00 1200.00 183 683 2.000 10000.000 0.000 -1.296
100 300.00 1200.00 202 668 2.000 10000.000 0.000 -1.296
101 303.00 1200.00 157 492 2.000 10000.000 0.000 -1.296
