# BinNR microsec tot-time (s)  O-Beam H-beam AUX Ampl(V) f(Hz) phase(deg) chi(pos)
0 0.00 900.00 289 521 3 0.000 5.373 2000.000 1.340
1 25.00 900.00 204 452 2 0.000 5.373 2000.000 1.340
2 50.00 900.00 173 395 1 0.000 5.373 2000.000 1.340
3 75.00 900.00 208 488 0 0.000 5.373 2000.000 1.340
4 100.00 900.00 279 564 2 0.000 5.373 2000.000 1.340
5 125.00 900.00 354 589 3 0.000 5.373 2000.000 1.340
6 150.00 900.00 376 699 3 0.000 5.373 2000.000 1.340
7 175.00 900.00 372 701 4 0.000 5.373 2000.000 1.340
8 200.00 900.00 291 682 4 0.000 5.373 2000.000 1.340
9 225.00 900.00 207 684 0 0.000 5.373 2000.000 1.340
10 250.00 900.00 140 601 3 0.000 5.373 2000.000 1.340
11 275.00 900.00 111 564 0 0.000 5.373 2000.000 1.340
12 300.00 900.00 98 456 6 0.000 5.373 2000.000 1.340
13 325.00 900.00 100 414 2 0.000 5.373 2000.000 1.340
14 350.00 900.00 140 434 2 0.000 5.373 2000.000 1.340
15 375.00 900.00 211 491 1 0.000 5.373 2000.000 1.340
16 400.00 900.00 271 602 1 0.000 5.373 2000.000 1.340
17 425.00 900.00 339 596 0 0.000 5.373 2000.000 1.340
18 450.00 900.00 425 599 2 0.000 5.373 2000.000 1.340
19 475.00 900.00 312 587 0 0.000 5.373 2000.000 1.340
20 500.00 900.00 272 470 2 0.000 5.373 2000.000 1.340
21 525.00 900.00 213 420 1 0.000 5.373 2000.000 1.340
22 550.00 900.00 183 425 4 0.000 5.373 2000.000 1.340
23 575.00 900.00 207 463 3 0.000 5.373 2000.000 1.340
24 600.00 900.00 238 572 3 0.000 5.373 2000.000 1.340
25 625.00 900.00 321 616 1 0.000 5.373 2000.000 1.340
26 650.00 900.00 397 713 2 0.000 5.373 2000.000 1.340
27 675.00 900.00 393 733 2 0.000 5.373 2000.000 1.340
28 700.00 900.00 308 689 5 0.000 5.373 2000.000 1.340
29 725.00 900.00 189 726 2 0.000 5.373 2000.000 1.340
30 750.00 900.00 143 638 0 0.000 5.373 2000.000 1.340
31 775.00 900.00 95 567 0 0.000 5.373 2000.000 1.340
32 800.00 900.00 104 435 1 0.000 5.373 2000.000 1.340
33 825.00 900.00 97 365 3 0.000 5.373 2000.000 1.340
34 850.00 900.00 144 423 0 0.000 5.373 2000.000 1.340
35 875.00 900.00 181 506 3 0.000 5.373 2000.000 1.340
36 900.00 900.00 285 564 3 0.000 5.373 2000.000 1.340
37 925.00 900.00 386 620 1 0.000 5.373 2000.000 1.340
38 950.00 900.00 376 614 5 0.000 5.373 2000.000 1.340
39 975.00 900.00 321 587 1 0.000 5.373 2000.000 1.340
