# BinNR microsec tot-time (s)  O-Beam AUX Ampl(V) f(Hz) phase(deg) chi(pos)
0 0.00 1200.01 76 115 1.100 10000.000 0.000 0.154
1 3.00 1200.01 150 205 1.100 10000.000 0.000 0.154
2 6.00 1200.01 153 197 1.100 10000.000 0.000 0.154
3 9.00 1200.01 154 187 1.100 10000.000 0.000 0.154
4 12.00 1200.01 162 185 1.100 10000.000 0.000 0.154
5 15.00 1200.01 133 161 1.100 10000.000 0.000 0.154
6 18.00 1200.01 126 159 1.100 10000.000 0.000 0.154
7 21.00 1200.01 118 145 1.100 10000.000 0.000 0.154
8 24.00 1200.01 138 145 1.100 10000.000 0.000 0.154
9 27.00 1200.01 117 132 1.100 10000.000 0.000 0.154
10 30.00 1200.01 131 153 1.100 10000.000 0.000 0.154
11 33.00 1200.01 115 145 1.100 10000.000 0.000 0.154
12 36.00 1200.01 124 163 1.100 10000.000 0.000 0.154
13 39.00 1200.01 130 146 1.100 10000.000 0.000 0.154
14 42.00 1200.01 132 173 1.100 10000.000 0.000 0.154
15 45.00 1200.01 111 163 1.100 10000.000 0.000 0.154
16 48.00 1200.01 147 149 1.100 10000.000 0.000 0.154
17 51.00 1200.01 125 138 1.100 10000.000 0.000 0.154
18 54.00 1200.01 151 146 1.100 10000.000 0.000 0.154
19 57.00 1200.01 113 151 1.100 10000.000 0.000 0.154
20 60.00 1200.01 131 169 1.100 10000.000 0.000 0.154
21 63.00 1200.01 124 147 1.100 10000.000 0.000 0.154
22 66.00 1200.01 143 166 1.100 10000.000 0.000 0.154
23 69.00 1200.01 149 175 1.100 10000.000 0.000 0.154
24 72.00 1200.01 141 213 1.100 10000.000 0.000 0.154
25 75.00 1200.01 152 197 1.100 10000.000 0.000 0.154
26 78.00 1200.01 136 231 1.100 10000.000 0.000 0.154
27 81.00 1200.01 154 215 1.100 10000.000 0.000 0.154
28 84.00 1200.01 169 232 1.100 10000.000 0.000 0.154
29 87.00 1200.01 153 246 1.100 10000.000 0.000 0.154
30 90.00 1200.01 159 236 1.100 10000.000 0.000 0.154
31 93.00 1200.01 165 237 1.100 10000.000 0.000 0.154
32 96.00 1200.01 172 235 1.100 10000.000 0.000 0.154
33 99.00 1200.01 155 275 1.100 10000.000 0.000 0.154
34 102.00 1200.01 138 220 1.100 10000.000 0.000 0.154
35 105.00 1200.01 162 199 1.100 10000.000 0.000 0.154
36 108.00 1200.01 147 191 1.100 10000.000 0.000 0.154
37 111.00 1200.01 138 180 1.100 10000.000 0.000 0.154
38 114.00 1200.01 138 190 1.100 10000.000 0.000 0.154
39 117.00 1200.01 138 169 1.100 10000.000 0.000 0.154
40 120.00 1200.01 148 187 1.100 10000.000 0.000 0.154
41 123.00 1200.01 136 155 1.100 10000.000 0.000 0.154
42 126.00 1200.01 150 156 1.100 10000.000 0.000 0.154
43 129.00 1200.01 116 139 1.100 10000.000 0.000 0.154
44 132.00 1200.01 125 148 1.100 10000.000 0.000 0.154
45 135.00 1200.01 129 154 1.100 10000.000 0.000 0.154
46 138.00 1200.01 139 146 1.100 10000.000 0.000 0.154
47 141.00 1200.01 128 117 1.100 10000.000 0.000 0.154
48 144.00 1200.01 128 166 1.100 10000.000 0.000 0.154
49 147.00 1200.01 107 160 1.100 10000.000 0.000 0.154
50 150.00 1200.01 117 145 1.100 10000.000 0.000 0.154
51 153.00 1200.01 128 142 1.100 10000.000 0.000 0.154
52 156.00 1200.01 125 170 1.100 10000.000 0.000 0.154
53 159.00 1200.01 143 141 1.100 10000.000 0.000 0.154
54 162.00 1200.01 142 153 1.100 10000.000 0.000 0.154
55 165.00 1200.01 142 165 1.100 10000.000 0.000 0.154
56 168.00 1200.01 146 175 1.100 10000.000 0.000 0.154
57 171.00 1200.01 151 196 1.100 10000.000 0.000 0.154
58 174.00 1200.01 148 195 1.100 10000.000 0.000 0.154
59 177.00 1200.01 143 225 1.100 10000.000 0.000 0.154
60 180.00 1200.01 154 214 1.100 10000.000 0.000 0.154
61 183.00 1200.01 156 240 1.100 10000.000 0.000 0.154
62 186.00 1200.01 160 254 1.100 10000.000 0.000 0.154
63 189.00 1200.01 148 227 1.100 10000.000 0.000 0.154
64 192.00 1200.01 157 234 1.100 10000.000 0.000 0.154
65 195.00 1200.01 160 240 1.100 10000.000 0.000 0.154
66 198.00 1200.01 156 235 1.100 10000.000 0.000 0.154
67 201.00 1200.01 149 225 1.100 10000.000 0.000 0.154
68 204.00 1200.01 154 210 1.100 10000.000 0.000 0.154
69 207.00 1200.01 143 222 1.100 10000.000 0.000 0.154
70 210.00 1200.01 145 188 1.100 10000.000 0.000 0.154
71 213.00 1200.01 141 188 1.100 10000.000 0.000 0.154
72 216.00 1200.01 152 181 1.100 10000.000 0.000 0.154
73 219.00 1200.01 134 193 1.100 10000.000 0.000 0.154
74 222.00 1200.01 137 159 1.100 10000.000 0.000 0.154
75 225.00 1200.01 135 162 1.100 10000.000 0.000 0.154
76 228.00 1200.01 123 160 1.100 10000.000 0.000 0.154
77 231.00 1200.01 112 135 1.100 10000.000 0.000 0.154
78 234.00 1200.01 107 140 1.100 10000.000 0.000 0.154
79 237.00 1200.01 96 130 1.100 10000.000 0.000 0.154
80 240.00 1200.01 126 133 1.100 10000.000 0.000 0.154
81 243.00 1200.01 109 141 1.100 10000.000 0.000 0.154
82 246.00 1200.01 134 138 1.100 10000.000 0.000 0.154
83 249.00 1200.01 117 143 1.100 10000.000 0.000 0.154
84 252.00 1200.01 120 138 1.100 10000.000 0.000 0.154
85 255.00 1200.01 126 159 1.100 10000.000 0.000 0.154
86 258.00 1200.01 138 156 1.100 10000.000 0.000 0.154
87 261.00 1200.01 135 160 1.100 10000.000 0.000 0.154
88 264.00 1200.01 124 162 1.100 10000.000 0.000 0.154
89 267.00 1200.01 145 174 1.100 10000.000 0.000 0.154
90 270.00 1200.01 151 217 1.100 10000.000 0.000 0.154
91 273.00 1200.01 153 201 1.100 10000.000 0.000 0.154
92 276.00 1200.01 162 231 1.100 10000.000 0.000 0.154
93 279.00 1200.01 164 220 1.100 10000.000 0.000 0.154
94 282.00 1200.01 141 205 1.100 10000.000 0.000 0.154
95 285.00 1200.01 166 209 1.100 10000.000 0.000 0.154
96 288.00 1200.01 179 264 1.100 10000.000 0.000 0.154
97 291.00 1200.01 153 212 1.100 10000.000 0.000 0.154
98 294.00 1200.01 158 257 1.100 10000.000 0.000 0.154
99 297.00 1200.01 162 230 1.100 10000.000 0.000 0.154
100 300.00 1200.01 168 220 1.100 10000.000 0.000 0.154
101 303.00 1200.01 183 231 1.100 10000.000 0.000 0.154
102 306.00 1200.01 154 215 1.100 10000.000 0.000 0.154
103 309.00 1200.01 136 215 1.100 10000.000 0.000 0.154
104 312.00 1200.01 147 179 1.100 10000.000 0.000 0.154
105 315.00 1200.01 143 143 1.100 10000.000 0.000 0.154
106 318.00 1200.01 141 179 1.100 10000.000 0.000 0.154
107 321.00 1200.01 129 172 1.100 10000.000 0.000 0.154
108 324.00 1200.01 115 148 1.100 10000.000 0.000 0.154
109 327.00 1200.01 127 157 1.100 10000.000 0.000 0.154
110 330.00 1200.01 125 135 1.100 10000.000 0.000 0.154
111 333.00 1200.01 109 151 1.100 10000.000 0.000 0.154
112 336.00 1200.01 119 150 1.100 10000.000 0.000 0.154
113 339.00 1200.01 120 129 1.100 10000.000 0.000 0.154
114 342.00 1200.01 130 146 1.100 10000.000 0.000 0.154
115 345.00 1200.01 133 143 1.100 10000.000 0.000 0.154
116 348.00 1200.01 135 152 1.100 10000.000 0.000 0.154
117 351.00 1200.01 137 161 1.100 10000.000 0.000 0.154
118 354.00 1200.01 122 146 1.100 10000.000 0.000 0.154
119 357.00 1200.01 126 157 1.100 10000.000 0.000 0.154
120 360.00 1200.01 129 176 1.100 10000.000 0.000 0.154
121 363.00 1200.01 144 162 1.100 10000.000 0.000 0.154
122 366.00 1200.01 144 201 1.100 10000.000 0.000 0.154
123 369.00 1200.01 139 182 1.100 10000.000 0.000 0.154
124 372.00 1200.01 144 187 1.100 10000.000 0.000 0.154
125 375.00 1200.01 156 200 1.100 10000.000 0.000 0.154
126 378.00 1200.01 147 218 1.100 10000.000 0.000 0.154
127 381.00 1200.01 128 201 1.100 10000.000 0.000 0.154
128 384.00 1200.01 178 210 1.100 10000.000 0.000 0.154
129 387.00 1200.01 157 194 1.100 10000.000 0.000 0.154
130 390.00 1200.01 142 236 1.100 10000.000 0.000 0.154
131 393.00 1200.01 155 213 1.100 10000.000 0.000 0.154
132 396.00 1200.01 157 229 1.100 10000.000 0.000 0.154
133 399.00 1200.01 173 217 1.100 10000.000 0.000 0.154
134 402.00 1200.01 149 231 1.100 10000.000 0.000 0.154
