# BinNR microsec tot-time (s)  O-Beam AUX Ampl(V) f(Hz) phase(deg) chi(pos)
0 0.00 1200.01 94 346 1.100 10000.000 0.000 0.989
1 3.00 1200.01 199 716 1.100 10000.000 0.000 0.989
2 6.00 1200.01 247 736 1.100 10000.000 0.000 0.989
3 9.00 1200.01 228 736 1.100 10000.000 0.000 0.989
4 12.00 1200.01 223 745 1.100 10000.000 0.000 0.989
5 15.00 1200.01 245 823 1.100 10000.000 0.000 0.989
6 18.00 1200.01 233 844 1.100 10000.000 0.000 0.989
7 21.00 1200.01 212 842 1.100 10000.000 0.000 0.989
8 24.00 1200.01 266 753 1.100 10000.000 0.000 0.989
9 27.00 1200.01 242 785 1.100 10000.000 0.000 0.989
10 30.00 1200.01 240 831 1.100 10000.000 0.000 0.989
11 33.00 1200.01 253 869 1.100 10000.000 0.000 0.989
12 36.00 1200.01 272 864 1.100 10000.000 0.000 0.989
13 39.00 1200.01 283 804 1.100 10000.000 0.000 0.989
14 42.00 1200.01 271 778 1.100 10000.000 0.000 0.989
15 45.00 1200.01 245 808 1.100 10000.000 0.000 0.989
16 48.00 1200.01 236 852 1.100 10000.000 0.000 0.989
17 51.00 1200.01 251 828 1.100 10000.000 0.000 0.989
18 54.00 1200.01 242 857 1.100 10000.000 0.000 0.989
19 57.00 1200.01 278 844 1.100 10000.000 0.000 0.989
20 60.00 1200.01 248 795 1.100 10000.000 0.000 0.989
21 63.00 1200.01 237 826 1.100 10000.000 0.000 0.989
22 66.00 1200.01 238 818 1.100 10000.000 0.000 0.989
23 69.00 1200.01 240 748 1.100 10000.000 0.000 0.989
24 72.00 1200.01 230 756 1.100 10000.000 0.000 0.989
25 75.00 1200.01 204 721 1.100 10000.000 0.000 0.989
26 78.00 1200.01 226 765 1.100 10000.000 0.000 0.989
27 81.00 1200.01 208 692 1.100 10000.000 0.000 0.989
28 84.00 1200.01 215 744 1.100 10000.000 0.000 0.989
29 87.00 1200.01 178 706 1.100 10000.000 0.000 0.989
30 90.00 1200.01 217 655 1.100 10000.000 0.000 0.989
31 93.00 1200.01 211 679 1.100 10000.000 0.000 0.989
32 96.00 1200.01 231 728 1.100 10000.000 0.000 0.989
33 99.00 1200.01 221 688 1.100 10000.000 0.000 0.989
34 102.00 1200.01 216 723 1.100 10000.000 0.000 0.989
35 105.00 1200.01 190 676 1.100 10000.000 0.000 0.989
36 108.00 1200.01 240 742 1.100 10000.000 0.000 0.989
37 111.00 1200.01 219 709 1.100 10000.000 0.000 0.989
38 114.00 1200.01 244 765 1.100 10000.000 0.000 0.989
39 117.00 1200.01 216 790 1.100 10000.000 0.000 0.989
40 120.00 1200.01 236 793 1.100 10000.000 0.000 0.989
41 123.00 1200.01 226 799 1.100 10000.000 0.000 0.989
42 126.00 1200.01 260 889 1.100 10000.000 0.000 0.989
43 129.00 1200.01 258 832 1.100 10000.000 0.000 0.989
44 132.00 1200.01 257 868 1.100 10000.000 0.000 0.989
45 135.00 1200.01 290 852 1.100 10000.000 0.000 0.989
46 138.00 1200.01 235 845 1.100 10000.000 0.000 0.989
47 141.00 1200.01 254 837 1.100 10000.000 0.000 0.989
48 144.00 1200.01 257 890 1.100 10000.000 0.000 0.989
49 147.00 1200.01 256 814 1.100 10000.000 0.000 0.989
50 150.00 1200.01 265 816 1.100 10000.000 0.000 0.989
51 153.00 1200.01 276 820 1.100 10000.000 0.000 0.989
52 156.00 1200.01 232 859 1.100 10000.000 0.000 0.989
53 159.00 1200.01 229 817 1.100 10000.000 0.000 0.989
54 162.00 1200.01 258 801 1.100 10000.000 0.000 0.989
55 165.00 1200.01 204 775 1.100 10000.000 0.000 0.989
56 168.00 1200.01 229 762 1.100 10000.000 0.000 0.989
57 171.00 1200.01 236 746 1.100 10000.000 0.000 0.989
58 174.00 1200.01 194 780 1.100 10000.000 0.000 0.989
59 177.00 1200.01 209 720 1.100 10000.000 0.000 0.989
60 180.00 1200.01 210 752 1.100 10000.000 0.000 0.989
61 183.00 1200.01 216 677 1.100 10000.000 0.000 0.989
62 186.00 1200.01 224 655 1.100 10000.000 0.000 0.989
63 189.00 1200.01 212 686 1.100 10000.000 0.000 0.989
64 192.00 1200.01 211 679 1.100 10000.000 0.000 0.989
65 195.00 1200.01 198 686 1.100 10000.000 0.000 0.989
66 198.00 1200.01 209 731 1.100 10000.000 0.000 0.989
67 201.00 1200.01 193 719 1.100 10000.000 0.000 0.989
68 204.00 1200.01 206 727 1.100 10000.000 0.000 0.989
69 207.00 1200.01 206 701 1.100 10000.000 0.000 0.989
70 210.00 1200.01 241 737 1.100 10000.000 0.000 0.989
71 213.00 1200.01 213 737 1.100 10000.000 0.000 0.989
72 216.00 1200.01 237 799 1.100 10000.000 0.000 0.989
73 219.00 1200.01 227 747 1.100 10000.000 0.000 0.989
74 222.00 1200.01 230 835 1.100 10000.000 0.000 0.989
75 225.00 1200.01 239 817 1.100 10000.000 0.000 0.989
76 228.00 1200.01 243 854 1.100 10000.000 0.000 0.989
77 231.00 1200.01 261 808 1.100 10000.000 0.000 0.989
78 234.00 1200.01 250 847 1.100 10000.000 0.000 0.989
79 237.00 1200.01 270 844 1.100 10000.000 0.000 0.989
80 240.00 1200.01 257 857 1.100 10000.000 0.000 0.989
81 243.00 1200.01 261 825 1.100 10000.000 0.000 0.989
82 246.00 1200.01 268 913 1.100 10000.000 0.000 0.989
83 249.00 1200.01 233 872 1.100 10000.000 0.000 0.989
84 252.00 1200.01 246 849 1.100 10000.000 0.000 0.989
85 255.00 1200.01 234 857 1.100 10000.000 0.000 0.989
86 258.00 1200.01 262 800 1.100 10000.000 0.000 0.989
87 261.00 1200.01 222 832 1.100 10000.000 0.000 0.989
88 264.00 1200.01 222 821 1.100 10000.000 0.000 0.989
89 267.00 1200.01 231 748 1.100 10000.000 0.000 0.989
90 270.00 1200.01 215 790 1.100 10000.000 0.000 0.989
91 273.00 1200.01 211 802 1.100 10000.000 0.000 0.989
92 276.00 1200.01 234 711 1.100 10000.000 0.000 0.989
93 279.00 1200.01 231 697 1.100 10000.000 0.000 0.989
94 282.00 1200.01 226 727 1.100 10000.000 0.000 0.989
95 285.00 1200.01 210 705 1.100 10000.000 0.000 0.989
96 288.00 1200.01 215 712 1.100 10000.000 0.000 0.989
97 291.00 1200.01 219 690 1.100 10000.000 0.000 0.989
98 294.00 1200.01 219 731 1.100 10000.000 0.000 0.989
99 297.00 1200.01 228 666 1.100 10000.000 0.000 0.989
100 300.00 1200.01 215 723 1.100 10000.000 0.000 0.989
101 303.00 1200.01 224 673 1.100 10000.000 0.000 0.989
102 306.00 1200.01 223 745 1.100 10000.000 0.000 0.989
103 309.00 1200.01 229 727 1.100 10000.000 0.000 0.989
104 312.00 1200.01 224 744 1.100 10000.000 0.000 0.989
105 315.00 1200.01 223 757 1.100 10000.000 0.000 0.989
106 318.00 1200.01 263 780 1.100 10000.000 0.000 0.989
107 321.00 1200.01 223 802 1.100 10000.000 0.000 0.989
108 324.00 1200.01 257 824 1.100 10000.000 0.000 0.989
109 327.00 1200.01 255 824 1.100 10000.000 0.000 0.989
110 330.00 1200.01 238 834 1.100 10000.000 0.000 0.989
111 333.00 1200.01 273 870 1.100 10000.000 0.000 0.989
112 336.00 1200.01 252 808 1.100 10000.000 0.000 0.989
113 339.00 1200.01 257 863 1.100 10000.000 0.000 0.989
114 342.00 1200.01 268 823 1.100 10000.000 0.000 0.989
115 345.00 1200.01 268 826 1.100 10000.000 0.000 0.989
116 348.00 1200.01 288 844 1.100 10000.000 0.000 0.989
117 351.00 1200.01 238 820 1.100 10000.000 0.000 0.989
118 354.00 1200.01 231 766 1.100 10000.000 0.000 0.989
119 357.00 1200.01 266 790 1.100 10000.000 0.000 0.989
120 360.00 1200.01 236 819 1.100 10000.000 0.000 0.989
121 363.00 1200.01 233 825 1.100 10000.000 0.000 0.989
122 366.00 1200.01 242 755 1.100 10000.000 0.000 0.989
123 369.00 1200.01 228 775 1.100 10000.000 0.000 0.989
124 372.00 1200.01 239 726 1.100 10000.000 0.000 0.989
125 375.00 1200.01 229 731 1.100 10000.000 0.000 0.989
126 378.00 1200.01 242 703 1.100 10000.000 0.000 0.989
127 381.00 1200.01 220 709 1.100 10000.000 0.000 0.989
128 384.00 1200.01 213 689 1.100 10000.000 0.000 0.989
129 387.00 1200.01 222 722 1.100 10000.000 0.000 0.989
130 390.00 1200.01 241 659 1.100 10000.000 0.000 0.989
131 393.00 1200.01 214 686 1.100 10000.000 0.000 0.989
132 396.00 1200.01 215 720 1.100 10000.000 0.000 0.989
133 399.00 1200.01 219 722 1.100 10000.000 0.000 0.989
134 402.00 1200.01 228 686 1.100 10000.000 0.000 0.989
