# BinNR microsec tot-time (s)  O-Beam AUX Ampl(V) f(Hz) phase(deg) chi(pos)
0 0.00 1200.01 184 540 1.100 10000.000 0.000 1.505
1 3.00 1200.01 376 1028 1.100 10000.000 0.000 1.505
2 6.00 1200.01 407 1080 1.100 10000.000 0.000 1.505
3 9.00 1200.01 359 1006 1.100 10000.000 0.000 1.505
4 12.00 1200.01 398 1031 1.100 10000.000 0.000 1.505
5 15.00 1200.01 390 991 1.100 10000.000 0.000 1.505
6 18.00 1200.01 361 1051 1.100 10000.000 0.000 1.505
7 21.00 1200.01 357 989 1.100 10000.000 0.000 1.505
8 24.00 1200.01 358 1019 1.100 10000.000 0.000 1.505
9 27.00 1200.01 377 1009 1.100 10000.000 0.000 1.505
10 30.00 1200.01 353 1077 1.100 10000.000 0.000 1.505
11 33.00 1200.01 359 977 1.100 10000.000 0.000 1.505
12 36.00 1200.01 405 992 1.100 10000.000 0.000 1.505
13 39.00 1200.01 352 1008 1.100 10000.000 0.000 1.505
14 42.00 1200.01 399 1045 1.100 10000.000 0.000 1.505
15 45.00 1200.01 371 952 1.100 10000.000 0.000 1.505
16 48.00 1200.01 348 1013 1.100 10000.000 0.000 1.505
17 51.00 1200.01 353 950 1.100 10000.000 0.000 1.505
18 54.00 1200.01 356 1065 1.100 10000.000 0.000 1.505
19 57.00 1200.01 347 994 1.100 10000.000 0.000 1.505
20 60.00 1200.01 394 1008 1.100 10000.000 0.000 1.505
21 63.00 1200.01 425 1002 1.100 10000.000 0.000 1.505
22 66.00 1200.01 350 1086 1.100 10000.000 0.000 1.505
23 69.00 1200.01 354 997 1.100 10000.000 0.000 1.505
24 72.00 1200.01 355 1064 1.100 10000.000 0.000 1.505
25 75.00 1200.01 340 1066 1.100 10000.000 0.000 1.505
26 78.00 1200.01 374 1080 1.100 10000.000 0.000 1.505
27 81.00 1200.01 367 1026 1.100 10000.000 0.000 1.505
28 84.00 1200.01 358 1078 1.100 10000.000 0.000 1.505
29 87.00 1200.01 383 1063 1.100 10000.000 0.000 1.505
30 90.00 1200.01 382 1072 1.100 10000.000 0.000 1.505
31 93.00 1200.01 333 1047 1.100 10000.000 0.000 1.505
32 96.00 1200.01 361 1111 1.100 10000.000 0.000 1.505
33 99.00 1200.01 348 1115 1.100 10000.000 0.000 1.505
34 102.00 1200.01 373 1097 1.100 10000.000 0.000 1.505
35 105.00 1200.01 343 1044 1.100 10000.000 0.000 1.505
36 108.00 1200.01 415 1054 1.100 10000.000 0.000 1.505
37 111.00 1200.01 360 1030 1.100 10000.000 0.000 1.505
38 114.00 1200.01 394 1050 1.100 10000.000 0.000 1.505
39 117.00 1200.01 338 1028 1.100 10000.000 0.000 1.505
40 120.00 1200.01 383 991 1.100 10000.000 0.000 1.505
41 123.00 1200.01 419 1050 1.100 10000.000 0.000 1.505
42 126.00 1200.01 371 1058 1.100 10000.000 0.000 1.505
43 129.00 1200.01 352 936 1.100 10000.000 0.000 1.505
44 132.00 1200.01 411 1023 1.100 10000.000 0.000 1.505
45 135.00 1200.01 353 977 1.100 10000.000 0.000 1.505
46 138.00 1200.01 370 1018 1.100 10000.000 0.000 1.505
47 141.00 1200.01 370 939 1.100 10000.000 0.000 1.505
48 144.00 1200.01 368 994 1.100 10000.000 0.000 1.505
49 147.00 1200.01 385 961 1.100 10000.000 0.000 1.505
50 150.00 1200.01 372 1009 1.100 10000.000 0.000 1.505
51 153.00 1200.01 368 1026 1.100 10000.000 0.000 1.505
52 156.00 1200.01 398 971 1.100 10000.000 0.000 1.505
53 159.00 1200.01 419 1011 1.100 10000.000 0.000 1.505
54 162.00 1200.01 372 1098 1.100 10000.000 0.000 1.505
55 165.00 1200.01 381 1021 1.100 10000.000 0.000 1.505
56 168.00 1200.01 384 1036 1.100 10000.000 0.000 1.505
57 171.00 1200.01 393 1064 1.100 10000.000 0.000 1.505
58 174.00 1200.01 338 1068 1.100 10000.000 0.000 1.505
59 177.00 1200.01 386 1039 1.100 10000.000 0.000 1.505
60 180.00 1200.01 406 1032 1.100 10000.000 0.000 1.505
61 183.00 1200.01 345 1005 1.100 10000.000 0.000 1.505
62 186.00 1200.01 366 1085 1.100 10000.000 0.000 1.505
63 189.00 1200.01 371 1047 1.100 10000.000 0.000 1.505
64 192.00 1200.01 397 1071 1.100 10000.000 0.000 1.505
65 195.00 1200.01 371 1073 1.100 10000.000 0.000 1.505
66 198.00 1200.01 417 1083 1.100 10000.000 0.000 1.505
67 201.00 1200.01 390 1097 1.100 10000.000 0.000 1.505
68 204.00 1200.01 410 1110 1.100 10000.000 0.000 1.505
69 207.00 1200.01 374 1005 1.100 10000.000 0.000 1.505
70 210.00 1200.01 365 1021 1.100 10000.000 0.000 1.505
71 213.00 1200.01 413 1013 1.100 10000.000 0.000 1.505
72 216.00 1200.01 375 1119 1.100 10000.000 0.000 1.505
73 219.00 1200.01 366 997 1.100 10000.000 0.000 1.505
74 222.00 1200.01 367 1030 1.100 10000.000 0.000 1.505
75 225.00 1200.01 388 1012 1.100 10000.000 0.000 1.505
76 228.00 1200.01 374 1018 1.100 10000.000 0.000 1.505
77 231.00 1200.01 357 972 1.100 10000.000 0.000 1.505
78 234.00 1200.01 362 994 1.100 10000.000 0.000 1.505
79 237.00 1200.01 356 969 1.100 10000.000 0.000 1.505
80 240.00 1200.01 343 1009 1.100 10000.000 0.000 1.505
81 243.00 1200.01 399 951 1.100 10000.000 0.000 1.505
82 246.00 1200.01 381 1002 1.100 10000.000 0.000 1.505
83 249.00 1200.01 350 1011 1.100 10000.000 0.000 1.505
84 252.00 1200.01 361 979 1.100 10000.000 0.000 1.505
85 255.00 1200.01 394 997 1.100 10000.000 0.000 1.505
86 258.00 1200.01 422 1005 1.100 10000.000 0.000 1.505
87 261.00 1200.01 374 1107 1.100 10000.000 0.000 1.505
88 264.00 1200.01 427 1041 1.100 10000.000 0.000 1.505
89 267.00 1200.01 377 1057 1.100 10000.000 0.000 1.505
90 270.00 1200.01 374 1044 1.100 10000.000 0.000 1.505
91 273.00 1200.01 353 1018 1.100 10000.000 0.000 1.505
92 276.00 1200.01 367 1101 1.100 10000.000 0.000 1.505
93 279.00 1200.01 376 1050 1.100 10000.000 0.000 1.505
94 282.00 1200.01 375 1031 1.100 10000.000 0.000 1.505
95 285.00 1200.01 355 1050 1.100 10000.000 0.000 1.505
96 288.00 1200.01 377 1103 1.100 10000.000 0.000 1.505
97 291.00 1200.01 358 1074 1.100 10000.000 0.000 1.505
98 294.00 1200.01 381 1044 1.100 10000.000 0.000 1.505
99 297.00 1200.01 354 1107 1.100 10000.000 0.000 1.505
100 300.00 1200.01 378 1048 1.100 10000.000 0.000 1.505
101 303.00 1200.01 353 1029 1.100 10000.000 0.000 1.505
102 306.00 1200.01 363 1102 1.100 10000.000 0.000 1.505
103 309.00 1200.01 387 989 1.100 10000.000 0.000 1.505
104 312.00 1200.01 378 1037 1.100 10000.000 0.000 1.505
105 315.00 1200.01 356 1008 1.100 10000.000 0.000 1.505
106 318.00 1200.01 385 1085 1.100 10000.000 0.000 1.505
107 321.00 1200.01 383 1080 1.100 10000.000 0.000 1.505
108 324.00 1200.01 381 1080 1.100 10000.000 0.000 1.505
109 327.00 1200.01 383 1020 1.100 10000.000 0.000 1.505
110 330.00 1200.01 396 962 1.100 10000.000 0.000 1.505
111 333.00 1200.01 379 985 1.100 10000.000 0.000 1.505
112 336.00 1200.01 388 1023 1.100 10000.000 0.000 1.505
113 339.00 1200.01 382 1015 1.100 10000.000 0.000 1.505
114 342.00 1200.01 371 995 1.100 10000.000 0.000 1.505
115 345.00 1200.01 356 1008 1.100 10000.000 0.000 1.505
116 348.00 1200.01 368 1009 1.100 10000.000 0.000 1.505
117 351.00 1200.01 343 1034 1.100 10000.000 0.000 1.505
118 354.00 1200.01 374 1012 1.100 10000.000 0.000 1.505
119 357.00 1200.01 369 962 1.100 10000.000 0.000 1.505
120 360.00 1200.01 391 999 1.100 10000.000 0.000 1.505
121 363.00 1200.01 360 1042 1.100 10000.000 0.000 1.505
122 366.00 1200.01 347 1083 1.100 10000.000 0.000 1.505
123 369.00 1200.01 363 1051 1.100 10000.000 0.000 1.505
124 372.00 1200.01 347 1033 1.100 10000.000 0.000 1.505
125 375.00 1200.01 368 1003 1.100 10000.000 0.000 1.505
126 378.00 1200.01 398 1057 1.100 10000.000 0.000 1.505
127 381.00 1200.01 374 1061 1.100 10000.000 0.000 1.505
128 384.00 1200.01 369 1046 1.100 10000.000 0.000 1.505
129 387.00 1200.01 350 1014 1.100 10000.000 0.000 1.505
130 390.00 1200.01 374 1095 1.100 10000.000 0.000 1.505
131 393.00 1200.01 357 1050 1.100 10000.000 0.000 1.505
132 396.00 1200.01 368 1079 1.100 10000.000 0.000 1.505
133 399.00 1200.01 349 1024 1.100 10000.000 0.000 1.505
134 402.00 1200.01 391 1057 1.100 10000.000 0.000 1.505
