# BinNR microsec tot-time (s)  O-Beam AUX Ampl(V) f(Hz) phase(deg) chi(pos)
0 0.00 1200.01 75 265 1.100 10000.000 0.000 0.835
1 3.00 1200.01 150 486 1.100 10000.000 0.000 0.835
2 6.00 1200.01 159 509 1.100 10000.000 0.000 0.835
3 9.00 1200.01 162 487 1.100 10000.000 0.000 0.835
4 12.00 1200.01 168 575 1.100 10000.000 0.000 0.835
5 15.00 1200.01 166 513 1.100 10000.000 0.000 0.835
6 18.00 1200.01 155 549 1.100 10000.000 0.000 0.835
7 21.00 1200.01 171 610 1.100 10000.000 0.000 0.835
8 24.00 1200.01 205 635 1.100 10000.000 0.000 0.835
9 27.00 1200.01 161 625 1.100 10000.000 0.000 0.835
10 30.00 1200.01 198 627 1.100 10000.000 0.000 0.835
11 33.00 1200.01 181 668 1.100 10000.000 0.000 0.835
12 36.00 1200.01 181 604 1.100 10000.000 0.000 0.835
13 39.00 1200.01 177 591 1.100 10000.000 0.000 0.835
14 42.00 1200.01 203 609 1.100 10000.000 0.000 0.835
15 45.00 1200.01 185 640 1.100 10000.000 0.000 0.835
16 48.00 1200.01 195 660 1.100 10000.000 0.000 0.835
17 51.00 1200.01 195 570 1.100 10000.000 0.000 0.835
18 54.00 1200.01 194 629 1.100 10000.000 0.000 0.835
19 57.00 1200.01 177 587 1.100 10000.000 0.000 0.835
20 60.00 1200.01 186 560 1.100 10000.000 0.000 0.835
21 63.00 1200.01 174 567 1.100 10000.000 0.000 0.835
22 66.00 1200.01 156 579 1.100 10000.000 0.000 0.835
23 69.00 1200.01 138 538 1.100 10000.000 0.000 0.835
24 72.00 1200.01 145 516 1.100 10000.000 0.000 0.835
25 75.00 1200.01 161 522 1.100 10000.000 0.000 0.835
26 78.00 1200.01 132 467 1.100 10000.000 0.000 0.835
27 81.00 1200.01 160 492 1.100 10000.000 0.000 0.835
28 84.00 1200.01 143 473 1.100 10000.000 0.000 0.835
29 87.00 1200.01 145 473 1.100 10000.000 0.000 0.835
30 90.00 1200.01 147 502 1.100 10000.000 0.000 0.835
31 93.00 1200.01 168 457 1.100 10000.000 0.000 0.835
32 96.00 1200.01 168 475 1.100 10000.000 0.000 0.835
33 99.00 1200.01 145 479 1.100 10000.000 0.000 0.835
34 102.00 1200.01 142 470 1.100 10000.000 0.000 0.835
35 105.00 1200.01 156 504 1.100 10000.000 0.000 0.835
36 108.00 1200.01 153 549 1.100 10000.000 0.000 0.835
37 111.00 1200.01 152 493 1.100 10000.000 0.000 0.835
38 114.00 1200.01 168 567 1.100 10000.000 0.000 0.835
39 117.00 1200.01 171 556 1.100 10000.000 0.000 0.835
40 120.00 1200.01 180 569 1.100 10000.000 0.000 0.835
41 123.00 1200.01 177 585 1.100 10000.000 0.000 0.835
42 126.00 1200.01 175 623 1.100 10000.000 0.000 0.835
43 129.00 1200.01 185 637 1.100 10000.000 0.000 0.835
44 132.00 1200.01 197 614 1.100 10000.000 0.000 0.835
45 135.00 1200.01 189 635 1.100 10000.000 0.000 0.835
46 138.00 1200.01 203 606 1.100 10000.000 0.000 0.835
47 141.00 1200.01 198 549 1.100 10000.000 0.000 0.835
48 144.00 1200.01 194 684 1.100 10000.000 0.000 0.835
49 147.00 1200.01 177 628 1.100 10000.000 0.000 0.835
50 150.00 1200.01 177 565 1.100 10000.000 0.000 0.835
51 153.00 1200.01 197 593 1.100 10000.000 0.000 0.835
52 156.00 1200.01 175 580 1.100 10000.000 0.000 0.835
53 159.00 1200.01 155 598 1.100 10000.000 0.000 0.835
54 162.00 1200.01 162 559 1.100 10000.000 0.000 0.835
55 165.00 1200.01 167 530 1.100 10000.000 0.000 0.835
56 168.00 1200.01 150 539 1.100 10000.000 0.000 0.835
57 171.00 1200.01 147 497 1.100 10000.000 0.000 0.835
58 174.00 1200.01 143 551 1.100 10000.000 0.000 0.835
59 177.00 1200.01 147 493 1.100 10000.000 0.000 0.835
60 180.00 1200.01 147 449 1.100 10000.000 0.000 0.835
61 183.00 1200.01 162 476 1.100 10000.000 0.000 0.835
62 186.00 1200.01 141 449 1.100 10000.000 0.000 0.835
63 189.00 1200.01 161 465 1.100 10000.000 0.000 0.835
64 192.00 1200.01 144 489 1.100 10000.000 0.000 0.835
65 195.00 1200.01 137 487 1.100 10000.000 0.000 0.835
66 198.00 1200.01 159 486 1.100 10000.000 0.000 0.835
67 201.00 1200.01 136 479 1.100 10000.000 0.000 0.835
68 204.00 1200.01 153 516 1.100 10000.000 0.000 0.835
69 207.00 1200.01 164 486 1.100 10000.000 0.000 0.835
70 210.00 1200.01 139 481 1.100 10000.000 0.000 0.835
71 213.00 1200.01 156 556 1.100 10000.000 0.000 0.835
72 216.00 1200.01 169 553 1.100 10000.000 0.000 0.835
73 219.00 1200.01 177 551 1.100 10000.000 0.000 0.835
74 222.00 1200.01 168 591 1.100 10000.000 0.000 0.835
75 225.00 1200.01 185 559 1.100 10000.000 0.000 0.835
76 228.00 1200.01 178 613 1.100 10000.000 0.000 0.835
77 231.00 1200.01 193 633 1.100 10000.000 0.000 0.835
78 234.00 1200.01 199 621 1.100 10000.000 0.000 0.835
79 237.00 1200.01 213 645 1.100 10000.000 0.000 0.835
80 240.00 1200.01 182 601 1.100 10000.000 0.000 0.835
81 243.00 1200.01 171 628 1.100 10000.000 0.000 0.835
82 246.00 1200.01 194 623 1.100 10000.000 0.000 0.835
83 249.00 1200.01 188 619 1.100 10000.000 0.000 0.835
84 252.00 1200.01 214 613 1.100 10000.000 0.000 0.835
85 255.00 1200.01 174 602 1.100 10000.000 0.000 0.835
86 258.00 1200.01 186 616 1.100 10000.000 0.000 0.835
87 261.00 1200.01 164 564 1.100 10000.000 0.000 0.835
88 264.00 1200.01 188 590 1.100 10000.000 0.000 0.835
89 267.00 1200.01 139 536 1.100 10000.000 0.000 0.835
90 270.00 1200.01 152 515 1.100 10000.000 0.000 0.835
91 273.00 1200.01 138 505 1.100 10000.000 0.000 0.835
92 276.00 1200.01 144 515 1.100 10000.000 0.000 0.835
93 279.00 1200.01 152 506 1.100 10000.000 0.000 0.835
94 282.00 1200.01 149 508 1.100 10000.000 0.000 0.835
95 285.00 1200.01 160 486 1.100 10000.000 0.000 0.835
96 288.00 1200.01 157 437 1.100 10000.000 0.000 0.835
97 291.00 1200.01 147 475 1.100 10000.000 0.000 0.835
98 294.00 1200.01 148 440 1.100 10000.000 0.000 0.835
99 297.00 1200.01 155 445 1.100 10000.000 0.000 0.835
100 300.00 1200.01 145 429 1.100 10000.000 0.000 0.835
101 303.00 1200.01 149 474 1.100 10000.000 0.000 0.835
102 306.00 1200.01 165 500 1.100 10000.000 0.000 0.835
103 309.00 1200.01 150 512 1.100 10000.000 0.000 0.835
104 312.00 1200.01 164 525 1.100 10000.000 0.000 0.835
105 315.00 1200.01 152 542 1.100 10000.000 0.000 0.835
106 318.00 1200.01 172 592 1.100 10000.000 0.000 0.835
107 321.00 1200.01 184 557 1.100 10000.000 0.000 0.835
108 324.00 1200.01 191 579 1.100 10000.000 0.000 0.835
109 327.00 1200.01 200 593 1.100 10000.000 0.000 0.835
110 330.00 1200.01 181 680 1.100 10000.000 0.000 0.835
111 333.00 1200.01 183 587 1.100 10000.000 0.000 0.835
112 336.00 1200.01 179 663 1.100 10000.000 0.000 0.835
113 339.00 1200.01 199 625 1.100 10000.000 0.000 0.835
114 342.00 1200.01 206 614 1.100 10000.000 0.000 0.835
115 345.00 1200.01 183 688 1.100 10000.000 0.000 0.835
116 348.00 1200.01 187 640 1.100 10000.000 0.000 0.835
117 351.00 1200.01 186 618 1.100 10000.000 0.000 0.835
118 354.00 1200.01 171 658 1.100 10000.000 0.000 0.835
119 357.00 1200.01 196 650 1.100 10000.000 0.000 0.835
120 360.00 1200.01 169 572 1.100 10000.000 0.000 0.835
121 363.00 1200.01 160 558 1.100 10000.000 0.000 0.835
122 366.00 1200.01 159 512 1.100 10000.000 0.000 0.835
123 369.00 1200.01 158 495 1.100 10000.000 0.000 0.835
124 372.00 1200.01 164 533 1.100 10000.000 0.000 0.835
125 375.00 1200.01 175 545 1.100 10000.000 0.000 0.835
126 378.00 1200.01 144 501 1.100 10000.000 0.000 0.835
127 381.00 1200.01 137 512 1.100 10000.000 0.000 0.835
128 384.00 1200.01 154 459 1.100 10000.000 0.000 0.835
129 387.00 1200.01 138 444 1.100 10000.000 0.000 0.835
130 390.00 1200.01 148 461 1.100 10000.000 0.000 0.835
131 393.00 1200.01 130 443 1.100 10000.000 0.000 0.835
132 396.00 1200.01 135 476 1.100 10000.000 0.000 0.835
133 399.00 1200.01 152 528 1.100 10000.000 0.000 0.835
134 402.00 1200.01 157 477 1.100 10000.000 0.000 0.835
