# BinNR microsec tot-time (s)  O-Beam AUX Ampl(V) f(Hz) phase(deg) chi(pos)
0 0.00 1200.01 60 159 1.100 10000.000 0.000 -1.340
1 3.00 1200.01 135 362 1.100 10000.000 0.000 -1.340
2 6.00 1200.01 124 378 1.100 10000.000 0.000 -1.340
3 9.00 1200.01 101 370 1.100 10000.000 0.000 -1.340
4 12.00 1200.01 125 364 1.100 10000.000 0.000 -1.340
5 15.00 1200.01 133 380 1.100 10000.000 0.000 -1.340
6 18.00 1200.01 135 389 1.100 10000.000 0.000 -1.340
7 21.00 1200.01 141 435 1.100 10000.000 0.000 -1.340
8 24.00 1200.01 161 476 1.100 10000.000 0.000 -1.340
9 27.00 1200.01 156 462 1.100 10000.000 0.000 -1.340
10 30.00 1200.01 134 426 1.100 10000.000 0.000 -1.340
11 33.00 1200.01 119 467 1.100 10000.000 0.000 -1.340
12 36.00 1200.01 120 499 1.100 10000.000 0.000 -1.340
13 39.00 1200.01 149 477 1.100 10000.000 0.000 -1.340
14 42.00 1200.01 141 437 1.100 10000.000 0.000 -1.340
15 45.00 1200.01 147 448 1.100 10000.000 0.000 -1.340
16 48.00 1200.01 136 491 1.100 10000.000 0.000 -1.340
17 51.00 1200.01 154 435 1.100 10000.000 0.000 -1.340
18 54.00 1200.01 128 420 1.100 10000.000 0.000 -1.340
19 57.00 1200.01 120 436 1.100 10000.000 0.000 -1.340
20 60.00 1200.01 122 448 1.100 10000.000 0.000 -1.340
21 63.00 1200.01 129 413 1.100 10000.000 0.000 -1.340
22 66.00 1200.01 121 407 1.100 10000.000 0.000 -1.340
23 69.00 1200.01 116 362 1.100 10000.000 0.000 -1.340
24 72.00 1200.01 115 381 1.100 10000.000 0.000 -1.340
25 75.00 1200.01 126 342 1.100 10000.000 0.000 -1.340
26 78.00 1200.01 111 358 1.100 10000.000 0.000 -1.340
27 81.00 1200.01 87 304 1.100 10000.000 0.000 -1.340
28 84.00 1200.01 96 325 1.100 10000.000 0.000 -1.340
29 87.00 1200.01 94 309 1.100 10000.000 0.000 -1.340
30 90.00 1200.01 121 322 1.100 10000.000 0.000 -1.340
31 93.00 1200.01 101 297 1.100 10000.000 0.000 -1.340
32 96.00 1200.01 115 337 1.100 10000.000 0.000 -1.340
33 99.00 1200.01 131 334 1.100 10000.000 0.000 -1.340
34 102.00 1200.01 119 353 1.100 10000.000 0.000 -1.340
35 105.00 1200.01 105 339 1.100 10000.000 0.000 -1.340
36 108.00 1200.01 101 356 1.100 10000.000 0.000 -1.340
37 111.00 1200.01 120 342 1.100 10000.000 0.000 -1.340
38 114.00 1200.01 114 396 1.100 10000.000 0.000 -1.340
39 117.00 1200.01 133 392 1.100 10000.000 0.000 -1.340
40 120.00 1200.01 115 394 1.100 10000.000 0.000 -1.340
41 123.00 1200.01 137 388 1.100 10000.000 0.000 -1.340
42 126.00 1200.01 120 415 1.100 10000.000 0.000 -1.340
43 129.00 1200.01 124 436 1.100 10000.000 0.000 -1.340
44 132.00 1200.01 147 432 1.100 10000.000 0.000 -1.340
45 135.00 1200.01 150 489 1.100 10000.000 0.000 -1.340
46 138.00 1200.01 121 491 1.100 10000.000 0.000 -1.340
47 141.00 1200.01 135 429 1.100 10000.000 0.000 -1.340
48 144.00 1200.01 142 480 1.100 10000.000 0.000 -1.340
49 147.00 1200.01 137 464 1.100 10000.000 0.000 -1.340
50 150.00 1200.01 127 467 1.100 10000.000 0.000 -1.340
51 153.00 1200.01 137 493 1.100 10000.000 0.000 -1.340
52 156.00 1200.01 111 450 1.100 10000.000 0.000 -1.340
53 159.00 1200.01 114 420 1.100 10000.000 0.000 -1.340
54 162.00 1200.01 113 389 1.100 10000.000 0.000 -1.340
55 165.00 1200.01 134 417 1.100 10000.000 0.000 -1.340
56 168.00 1200.01 120 397 1.100 10000.000 0.000 -1.340
57 171.00 1200.01 129 343 1.100 10000.000 0.000 -1.340
58 174.00 1200.01 114 336 1.100 10000.000 0.000 -1.340
59 177.00 1200.01 126 325 1.100 10000.000 0.000 -1.340
60 180.00 1200.01 128 349 1.100 10000.000 0.000 -1.340
61 183.00 1200.01 113 296 1.100 10000.000 0.000 -1.340
62 186.00 1200.01 91 312 1.100 10000.000 0.000 -1.340
63 189.00 1200.01 131 298 1.100 10000.000 0.000 -1.340
64 192.00 1200.01 104 311 1.100 10000.000 0.000 -1.340
65 195.00 1200.01 111 305 1.100 10000.000 0.000 -1.340
66 198.00 1200.01 137 324 1.100 10000.000 0.000 -1.340
67 201.00 1200.01 107 314 1.100 10000.000 0.000 -1.340
68 204.00 1200.01 137 325 1.100 10000.000 0.000 -1.340
69 207.00 1200.01 126 322 1.100 10000.000 0.000 -1.340
70 210.00 1200.01 125 349 1.100 10000.000 0.000 -1.340
71 213.00 1200.01 121 382 1.100 10000.000 0.000 -1.340
72 216.00 1200.01 119 405 1.100 10000.000 0.000 -1.340
73 219.00 1200.01 124 371 1.100 10000.000 0.000 -1.340
74 222.00 1200.01 147 466 1.100 10000.000 0.000 -1.340
75 225.00 1200.01 117 458 1.100 10000.000 0.000 -1.340
76 228.00 1200.01 103 404 1.100 10000.000 0.000 -1.340
77 231.00 1200.01 128 403 1.100 10000.000 0.000 -1.340
78 234.00 1200.01 135 452 1.100 10000.000 0.000 -1.340
79 237.00 1200.01 140 434 1.100 10000.000 0.000 -1.340
80 240.00 1200.01 150 459 1.100 10000.000 0.000 -1.340
81 243.00 1200.01 126 430 1.100 10000.000 0.000 -1.340
82 246.00 1200.01 147 508 1.100 10000.000 0.000 -1.340
83 249.00 1200.01 139 439 1.100 10000.000 0.000 -1.340
84 252.00 1200.01 139 443 1.100 10000.000 0.000 -1.340
85 255.00 1200.01 146 462 1.100 10000.000 0.000 -1.340
86 258.00 1200.01 131 446 1.100 10000.000 0.000 -1.340
87 261.00 1200.01 123 397 1.100 10000.000 0.000 -1.340
88 264.00 1200.01 127 434 1.100 10000.000 0.000 -1.340
89 267.00 1200.01 98 370 1.100 10000.000 0.000 -1.340
90 270.00 1200.01 114 354 1.100 10000.000 0.000 -1.340
91 273.00 1200.01 89 333 1.100 10000.000 0.000 -1.340
92 276.00 1200.01 118 353 1.100 10000.000 0.000 -1.340
93 279.00 1200.01 125 336 1.100 10000.000 0.000 -1.340
94 282.00 1200.01 107 364 1.100 10000.000 0.000 -1.340
95 285.00 1200.01 104 312 1.100 10000.000 0.000 -1.340
96 288.00 1200.01 112 320 1.100 10000.000 0.000 -1.340
97 291.00 1200.01 107 350 1.100 10000.000 0.000 -1.340
98 294.00 1200.01 112 311 1.100 10000.000 0.000 -1.340
99 297.00 1200.01 111 291 1.100 10000.000 0.000 -1.340
100 300.00 1200.01 122 324 1.100 10000.000 0.000 -1.340
101 303.00 1200.01 125 323 1.100 10000.000 0.000 -1.340
102 306.00 1200.01 129 327 1.100 10000.000 0.000 -1.340
103 309.00 1200.01 129 358 1.100 10000.000 0.000 -1.340
104 312.00 1200.01 110 373 1.100 10000.000 0.000 -1.340
105 315.00 1200.01 138 387 1.100 10000.000 0.000 -1.340
106 318.00 1200.01 111 427 1.100 10000.000 0.000 -1.340
107 321.00 1200.01 147 417 1.100 10000.000 0.000 -1.340
108 324.00 1200.01 133 434 1.100 10000.000 0.000 -1.340
109 327.00 1200.01 127 387 1.100 10000.000 0.000 -1.340
110 330.00 1200.01 133 471 1.100 10000.000 0.000 -1.340
111 333.00 1200.01 132 426 1.100 10000.000 0.000 -1.340
112 336.00 1200.01 142 437 1.100 10000.000 0.000 -1.340
113 339.00 1200.01 151 483 1.100 10000.000 0.000 -1.340
114 342.00 1200.01 139 482 1.100 10000.000 0.000 -1.340
115 345.00 1200.01 111 458 1.100 10000.000 0.000 -1.340
116 348.00 1200.01 133 482 1.100 10000.000 0.000 -1.340
117 351.00 1200.01 133 432 1.100 10000.000 0.000 -1.340
118 354.00 1200.01 146 460 1.100 10000.000 0.000 -1.340
119 357.00 1200.01 125 428 1.100 10000.000 0.000 -1.340
120 360.00 1200.01 148 399 1.100 10000.000 0.000 -1.340
121 363.00 1200.01 125 394 1.100 10000.000 0.000 -1.340
122 366.00 1200.01 132 407 1.100 10000.000 0.000 -1.340
123 369.00 1200.01 133 373 1.100 10000.000 0.000 -1.340
124 372.00 1200.01 114 355 1.100 10000.000 0.000 -1.340
125 375.00 1200.01 107 375 1.100 10000.000 0.000 -1.340
126 378.00 1200.01 118 333 1.100 10000.000 0.000 -1.340
127 381.00 1200.01 108 326 1.100 10000.000 0.000 -1.340
128 384.00 1200.01 107 327 1.100 10000.000 0.000 -1.340
129 387.00 1200.01 79 327 1.100 10000.000 0.000 -1.340
130 390.00 1200.01 101 306 1.100 10000.000 0.000 -1.340
131 393.00 1200.01 109 313 1.100 10000.000 0.000 -1.340
132 396.00 1200.01 104 337 1.100 10000.000 0.000 -1.340
133 399.00 1200.01 104 322 1.100 10000.000 0.000 -1.340
134 402.00 1200.01 122 323 1.100 10000.000 0.000 -1.340
