# BinNR microsec tot-time (s)  O-Beam AUX Ampl(V) f(Hz) phase(deg) chi(pos)
0 0.00 1500.00 68 184 0.370 10000.000 0.000 -1.351
1 3.00 1500.00 125 404 0.370 10000.000 0.000 -1.351
2 6.00 1500.00 132 435 0.370 10000.000 0.000 -1.351
3 9.00 1500.00 141 409 0.370 10000.000 0.000 -1.351
4 12.00 1500.00 126 386 0.370 10000.000 0.000 -1.351
5 15.00 1500.00 131 393 0.370 10000.000 0.000 -1.351
6 18.00 1500.00 117 413 0.370 10000.000 0.000 -1.351
7 21.00 1500.00 131 395 0.370 10000.000 0.000 -1.351
8 24.00 1500.00 130 363 0.370 10000.000 0.000 -1.351
9 27.00 1500.00 113 329 0.370 10000.000 0.000 -1.351
10 30.00 1500.00 109 392 0.370 10000.000 0.000 -1.351
11 33.00 1500.00 110 346 0.370 10000.000 0.000 -1.351
12 36.00 1500.00 127 352 0.370 10000.000 0.000 -1.351
13 39.00 1500.00 125 338 0.370 10000.000 0.000 -1.351
14 42.00 1500.00 112 375 0.370 10000.000 0.000 -1.351
15 45.00 1500.00 130 369 0.370 10000.000 0.000 -1.351
16 48.00 1500.00 120 375 0.370 10000.000 0.000 -1.351
17 51.00 1500.00 121 410 0.370 10000.000 0.000 -1.351
18 54.00 1500.00 121 395 0.370 10000.000 0.000 -1.351
19 57.00 1500.00 120 371 0.370 10000.000 0.000 -1.351
20 60.00 1500.00 126 402 0.370 10000.000 0.000 -1.351
21 63.00 1500.00 126 406 0.370 10000.000 0.000 -1.351
22 66.00 1500.00 132 390 0.370 10000.000 0.000 -1.351
23 69.00 1500.00 136 369 0.370 10000.000 0.000 -1.351
24 72.00 1500.00 125 327 0.370 10000.000 0.000 -1.351
25 75.00 1500.00 135 356 0.370 10000.000 0.000 -1.351
26 78.00 1500.00 135 364 0.370 10000.000 0.000 -1.351
27 81.00 1500.00 134 338 0.370 10000.000 0.000 -1.351
28 84.00 1500.00 126 312 0.370 10000.000 0.000 -1.351
29 87.00 1500.00 141 286 0.370 10000.000 0.000 -1.351
30 90.00 1500.00 139 292 0.370 10000.000 0.000 -1.351
31 93.00 1500.00 145 275 0.370 10000.000 0.000 -1.351
32 96.00 1500.00 130 302 0.370 10000.000 0.000 -1.351
33 99.00 1500.00 128 261 0.370 10000.000 0.000 -1.351
34 102.00 1500.00 138 277 0.370 10000.000 0.000 -1.351
35 105.00 1500.00 128 276 0.370 10000.000 0.000 -1.351
36 108.00 1500.00 140 287 0.370 10000.000 0.000 -1.351
37 111.00 1500.00 125 322 0.370 10000.000 0.000 -1.351
38 114.00 1500.00 141 333 0.370 10000.000 0.000 -1.351
39 117.00 1500.00 134 344 0.370 10000.000 0.000 -1.351
40 120.00 1500.00 130 329 0.370 10000.000 0.000 -1.351
41 123.00 1500.00 108 420 0.370 10000.000 0.000 -1.351
42 126.00 1500.00 114 370 0.370 10000.000 0.000 -1.351
43 129.00 1500.00 129 405 0.370 10000.000 0.000 -1.351
44 132.00 1500.00 123 398 0.370 10000.000 0.000 -1.351
45 135.00 1500.00 107 398 0.370 10000.000 0.000 -1.351
46 138.00 1500.00 127 409 0.370 10000.000 0.000 -1.351
47 141.00 1500.00 128 412 0.370 10000.000 0.000 -1.351
48 144.00 1500.00 125 453 0.370 10000.000 0.000 -1.351
49 147.00 1500.00 138 418 0.370 10000.000 0.000 -1.351
50 150.00 1500.00 142 438 0.370 10000.000 0.000 -1.351
51 153.00 1500.00 125 412 0.370 10000.000 0.000 -1.351
52 156.00 1500.00 129 405 0.370 10000.000 0.000 -1.351
53 159.00 1500.00 115 413 0.370 10000.000 0.000 -1.351
54 162.00 1500.00 137 423 0.370 10000.000 0.000 -1.351
55 165.00 1500.00 114 391 0.370 10000.000 0.000 -1.351
56 168.00 1500.00 131 415 0.370 10000.000 0.000 -1.351
57 171.00 1500.00 126 360 0.370 10000.000 0.000 -1.351
58 174.00 1500.00 137 378 0.370 10000.000 0.000 -1.351
59 177.00 1500.00 130 331 0.370 10000.000 0.000 -1.351
60 180.00 1500.00 152 320 0.370 10000.000 0.000 -1.351
61 183.00 1500.00 143 280 0.370 10000.000 0.000 -1.351
62 186.00 1500.00 144 340 0.370 10000.000 0.000 -1.351
63 189.00 1500.00 103 322 0.370 10000.000 0.000 -1.351
64 192.00 1500.00 144 282 0.370 10000.000 0.000 -1.351
65 195.00 1500.00 149 279 0.370 10000.000 0.000 -1.351
66 198.00 1500.00 137 292 0.370 10000.000 0.000 -1.351
67 201.00 1500.00 126 277 0.370 10000.000 0.000 -1.351
68 204.00 1500.00 155 307 0.370 10000.000 0.000 -1.351
69 207.00 1500.00 117 289 0.370 10000.000 0.000 -1.351
70 210.00 1500.00 127 289 0.370 10000.000 0.000 -1.351
71 213.00 1500.00 121 332 0.370 10000.000 0.000 -1.351
72 216.00 1500.00 144 328 0.370 10000.000 0.000 -1.351
73 219.00 1500.00 125 301 0.370 10000.000 0.000 -1.351
74 222.00 1500.00 132 344 0.370 10000.000 0.000 -1.351
75 225.00 1500.00 105 364 0.370 10000.000 0.000 -1.351
76 228.00 1500.00 117 397 0.370 10000.000 0.000 -1.351
77 231.00 1500.00 113 384 0.370 10000.000 0.000 -1.351
78 234.00 1500.00 119 408 0.370 10000.000 0.000 -1.351
79 237.00 1500.00 105 396 0.370 10000.000 0.000 -1.351
80 240.00 1500.00 122 414 0.370 10000.000 0.000 -1.351
81 243.00 1500.00 125 449 0.370 10000.000 0.000 -1.351
82 246.00 1500.00 125 424 0.370 10000.000 0.000 -1.351
83 249.00 1500.00 108 428 0.370 10000.000 0.000 -1.351
84 252.00 1500.00 98 408 0.370 10000.000 0.000 -1.351
85 255.00 1500.00 113 419 0.370 10000.000 0.000 -1.351
86 258.00 1500.00 145 447 0.370 10000.000 0.000 -1.351
87 261.00 1500.00 127 383 0.370 10000.000 0.000 -1.351
88 264.00 1500.00 132 385 0.370 10000.000 0.000 -1.351
89 267.00 1500.00 128 395 0.370 10000.000 0.000 -1.351
90 270.00 1500.00 123 377 0.370 10000.000 0.000 -1.351
91 273.00 1500.00 125 356 0.370 10000.000 0.000 -1.351
92 276.00 1500.00 137 355 0.370 10000.000 0.000 -1.351
93 279.00 1500.00 130 327 0.370 10000.000 0.000 -1.351
94 282.00 1500.00 146 315 0.370 10000.000 0.000 -1.351
95 285.00 1500.00 129 312 0.370 10000.000 0.000 -1.351
96 288.00 1500.00 124 297 0.370 10000.000 0.000 -1.351
97 291.00 1500.00 118 302 0.370 10000.000 0.000 -1.351
98 294.00 1500.00 157 283 0.370 10000.000 0.000 -1.351
99 297.00 1500.00 127 277 0.370 10000.000 0.000 -1.351
100 300.00 1500.00 123 258 0.370 10000.000 0.000 -1.351
101 303.00 1500.00 123 266 0.370 10000.000 0.000 -1.351
102 306.00 1500.00 142 295 0.370 10000.000 0.000 -1.351
103 309.00 1500.00 116 306 0.370 10000.000 0.000 -1.351
104 312.00 1500.00 135 287 0.370 10000.000 0.000 -1.351
105 315.00 1500.00 135 306 0.370 10000.000 0.000 -1.351
106 318.00 1500.00 131 314 0.370 10000.000 0.000 -1.351
107 321.00 1500.00 117 344 0.370 10000.000 0.000 -1.351
108 324.00 1500.00 126 379 0.370 10000.000 0.000 -1.351
109 327.00 1500.00 131 362 0.370 10000.000 0.000 -1.351
110 330.00 1500.00 148 388 0.370 10000.000 0.000 -1.351
111 333.00 1500.00 137 389 0.370 10000.000 0.000 -1.351
112 336.00 1500.00 119 419 0.370 10000.000 0.000 -1.351
113 339.00 1500.00 116 430 0.370 10000.000 0.000 -1.351
114 342.00 1500.00 133 429 0.370 10000.000 0.000 -1.351
115 345.00 1500.00 116 421 0.370 10000.000 0.000 -1.351
116 348.00 1500.00 123 447 0.370 10000.000 0.000 -1.351
117 351.00 1500.00 102 420 0.370 10000.000 0.000 -1.351
118 354.00 1500.00 106 439 0.370 10000.000 0.000 -1.351
119 357.00 1500.00 124 423 0.370 10000.000 0.000 -1.351
120 360.00 1500.00 122 396 0.370 10000.000 0.000 -1.351
121 363.00 1500.00 107 386 0.370 10000.000 0.000 -1.351
122 366.00 1500.00 108 417 0.370 10000.000 0.000 -1.351
123 369.00 1500.00 107 353 0.370 10000.000 0.000 -1.351
124 372.00 1500.00 124 365 0.370 10000.000 0.000 -1.351
125 375.00 1500.00 112 345 0.370 10000.000 0.000 -1.351
126 378.00 1500.00 113 343 0.370 10000.000 0.000 -1.351
127 381.00 1500.00 122 368 0.370 10000.000 0.000 -1.351
128 384.00 1500.00 133 309 0.370 10000.000 0.000 -1.351
129 387.00 1500.00 106 311 0.370 10000.000 0.000 -1.351
130 390.00 1500.00 135 286 0.370 10000.000 0.000 -1.351
131 393.00 1500.00 140 284 0.370 10000.000 0.000 -1.351
132 396.00 1500.00 136 257 0.370 10000.000 0.000 -1.351
133 399.00 1500.00 122 295 0.370 10000.000 0.000 -1.351
134 402.00 1500.00 118 273 0.370 10000.000 0.000 -1.351
135 405.00 1500.00 135 275 0.370 10000.000 0.000 -1.351
136 408.00 1500.00 121 312 0.370 10000.000 0.000 -1.351
137 411.00 1500.00 145 322 0.370 10000.000 0.000 -1.351
138 414.00 1500.00 124 298 0.370 10000.000 0.000 -1.351
139 417.00 1500.00 157 291 0.370 10000.000 0.000 -1.351
140 420.00 1500.00 146 344 0.370 10000.000 0.000 -1.351
141 423.00 1500.00 129 372 0.370 10000.000 0.000 -1.351
142 426.00 1500.00 147 327 0.370 10000.000 0.000 -1.351
143 429.00 1500.00 144 410 0.370 10000.000 0.000 -1.351
144 432.00 1500.00 146 418 0.370 10000.000 0.000 -1.351
