# BinNR microsec tot-time (s)  O-Beam AUX Ampl(V) f(Hz) phase(deg) chi(pos)
0 0.00 1500.01 197 635 0.370 10000.000 0.000 -0.516
1 3.00 1500.01 418 1186 0.370 10000.000 0.000 -0.516
2 6.00 1500.01 427 1251 0.370 10000.000 0.000 -0.516
3 9.00 1500.01 436 1241 0.370 10000.000 0.000 -0.516
4 12.00 1500.01 462 1261 0.370 10000.000 0.000 -0.516
5 15.00 1500.01 460 1188 0.370 10000.000 0.000 -0.516
6 18.00 1500.01 465 1216 0.370 10000.000 0.000 -0.516
7 21.00 1500.01 449 1202 0.370 10000.000 0.000 -0.516
8 24.00 1500.01 432 1276 0.370 10000.000 0.000 -0.516
9 27.00 1500.01 418 1220 0.370 10000.000 0.000 -0.516
10 30.00 1500.01 437 1278 0.370 10000.000 0.000 -0.516
11 33.00 1500.01 446 1225 0.370 10000.000 0.000 -0.516
12 36.00 1500.01 472 1286 0.370 10000.000 0.000 -0.516
13 39.00 1500.01 430 1267 0.370 10000.000 0.000 -0.516
14 42.00 1500.01 468 1265 0.370 10000.000 0.000 -0.516
15 45.00 1500.01 425 1215 0.370 10000.000 0.000 -0.516
16 48.00 1500.01 425 1224 0.370 10000.000 0.000 -0.516
17 51.00 1500.01 465 1211 0.370 10000.000 0.000 -0.516
18 54.00 1500.01 418 1233 0.370 10000.000 0.000 -0.516
19 57.00 1500.01 458 1222 0.370 10000.000 0.000 -0.516
20 60.00 1500.01 418 1294 0.370 10000.000 0.000 -0.516
21 63.00 1500.01 420 1232 0.370 10000.000 0.000 -0.516
22 66.00 1500.01 439 1283 0.370 10000.000 0.000 -0.516
23 69.00 1500.01 395 1248 0.370 10000.000 0.000 -0.516
24 72.00 1500.01 467 1284 0.370 10000.000 0.000 -0.516
25 75.00 1500.01 378 1187 0.370 10000.000 0.000 -0.516
26 78.00 1500.01 422 1211 0.370 10000.000 0.000 -0.516
27 81.00 1500.01 450 1164 0.370 10000.000 0.000 -0.516
28 84.00 1500.01 486 1271 0.370 10000.000 0.000 -0.516
29 87.00 1500.01 467 1208 0.370 10000.000 0.000 -0.516
30 90.00 1500.01 455 1317 0.370 10000.000 0.000 -0.516
31 93.00 1500.01 467 1275 0.370 10000.000 0.000 -0.516
32 96.00 1500.01 456 1276 0.370 10000.000 0.000 -0.516
33 99.00 1500.01 466 1222 0.370 10000.000 0.000 -0.516
34 102.00 1500.01 452 1300 0.370 10000.000 0.000 -0.516
35 105.00 1500.01 420 1280 0.370 10000.000 0.000 -0.516
36 108.00 1500.01 433 1240 0.370 10000.000 0.000 -0.516
37 111.00 1500.01 416 1220 0.370 10000.000 0.000 -0.516
38 114.00 1500.01 429 1290 0.370 10000.000 0.000 -0.516
39 117.00 1500.01 470 1298 0.370 10000.000 0.000 -0.516
40 120.00 1500.01 430 1247 0.370 10000.000 0.000 -0.516
41 123.00 1500.01 435 1220 0.370 10000.000 0.000 -0.516
42 126.00 1500.01 427 1282 0.370 10000.000 0.000 -0.516
43 129.00 1500.01 442 1220 0.370 10000.000 0.000 -0.516
44 132.00 1500.01 433 1223 0.370 10000.000 0.000 -0.516
45 135.00 1500.01 449 1215 0.370 10000.000 0.000 -0.516
46 138.00 1500.01 455 1210 0.370 10000.000 0.000 -0.516
47 141.00 1500.01 422 1233 0.370 10000.000 0.000 -0.516
48 144.00 1500.01 423 1265 0.370 10000.000 0.000 -0.516
49 147.00 1500.01 448 1274 0.370 10000.000 0.000 -0.516
50 150.00 1500.01 448 1197 0.370 10000.000 0.000 -0.516
51 153.00 1500.01 432 1222 0.370 10000.000 0.000 -0.516
52 156.00 1500.01 455 1232 0.370 10000.000 0.000 -0.516
53 159.00 1500.01 439 1201 0.370 10000.000 0.000 -0.516
54 162.00 1500.01 428 1200 0.370 10000.000 0.000 -0.516
55 165.00 1500.01 467 1219 0.370 10000.000 0.000 -0.516
56 168.00 1500.01 469 1245 0.370 10000.000 0.000 -0.516
57 171.00 1500.01 414 1219 0.370 10000.000 0.000 -0.516
58 174.00 1500.01 444 1271 0.370 10000.000 0.000 -0.516
59 177.00 1500.01 424 1186 0.370 10000.000 0.000 -0.516
60 180.00 1500.01 468 1322 0.370 10000.000 0.000 -0.516
61 183.00 1500.01 433 1213 0.370 10000.000 0.000 -0.516
62 186.00 1500.01 495 1260 0.370 10000.000 0.000 -0.516
63 189.00 1500.01 416 1262 0.370 10000.000 0.000 -0.516
64 192.00 1500.01 463 1292 0.370 10000.000 0.000 -0.516
65 195.00 1500.01 423 1213 0.370 10000.000 0.000 -0.516
66 198.00 1500.01 432 1294 0.370 10000.000 0.000 -0.516
67 201.00 1500.01 393 1252 0.370 10000.000 0.000 -0.516
68 204.00 1500.01 440 1231 0.370 10000.000 0.000 -0.516
69 207.00 1500.01 413 1166 0.370 10000.000 0.000 -0.516
70 210.00 1500.01 396 1274 0.370 10000.000 0.000 -0.516
71 213.00 1500.01 431 1241 0.370 10000.000 0.000 -0.516
72 216.00 1500.01 428 1321 0.370 10000.000 0.000 -0.516
73 219.00 1500.01 420 1261 0.370 10000.000 0.000 -0.516
74 222.00 1500.01 457 1232 0.370 10000.000 0.000 -0.516
75 225.00 1500.01 451 1258 0.370 10000.000 0.000 -0.516
76 228.00 1500.01 443 1325 0.370 10000.000 0.000 -0.516
77 231.00 1500.01 432 1287 0.370 10000.000 0.000 -0.516
78 234.00 1500.01 425 1260 0.370 10000.000 0.000 -0.516
79 237.00 1500.01 441 1228 0.370 10000.000 0.000 -0.516
80 240.00 1500.01 441 1243 0.370 10000.000 0.000 -0.516
81 243.00 1500.01 435 1288 0.370 10000.000 0.000 -0.516
82 246.00 1500.01 459 1167 0.370 10000.000 0.000 -0.516
83 249.00 1500.01 433 1240 0.370 10000.000 0.000 -0.516
84 252.00 1500.01 443 1205 0.370 10000.000 0.000 -0.516
85 255.00 1500.01 426 1185 0.370 10000.000 0.000 -0.516
86 258.00 1500.01 439 1237 0.370 10000.000 0.000 -0.516
87 261.00 1500.01 450 1161 0.370 10000.000 0.000 -0.516
88 264.00 1500.01 441 1178 0.370 10000.000 0.000 -0.516
89 267.00 1500.01 438 1235 0.370 10000.000 0.000 -0.516
90 270.00 1500.01 474 1282 0.370 10000.000 0.000 -0.516
91 273.00 1500.01 462 1196 0.370 10000.000 0.000 -0.516
92 276.00 1500.01 431 1276 0.370 10000.000 0.000 -0.516
93 279.00 1500.01 406 1226 0.370 10000.000 0.000 -0.516
94 282.00 1500.01 457 1286 0.370 10000.000 0.000 -0.516
95 285.00 1500.01 427 1240 0.370 10000.000 0.000 -0.516
96 288.00 1500.01 452 1300 0.370 10000.000 0.000 -0.516
97 291.00 1500.01 453 1317 0.370 10000.000 0.000 -0.516
98 294.00 1500.01 448 1350 0.370 10000.000 0.000 -0.516
99 297.00 1500.01 433 1188 0.370 10000.000 0.000 -0.516
100 300.00 1500.01 469 1294 0.370 10000.000 0.000 -0.516
101 303.00 1500.01 437 1193 0.370 10000.000 0.000 -0.516
102 306.00 1500.01 436 1280 0.370 10000.000 0.000 -0.516
103 309.00 1500.01 411 1228 0.370 10000.000 0.000 -0.516
104 312.00 1500.01 458 1286 0.370 10000.000 0.000 -0.516
105 315.00 1500.01 419 1190 0.370 10000.000 0.000 -0.516
106 318.00 1500.01 414 1220 0.370 10000.000 0.000 -0.516
107 321.00 1500.01 426 1248 0.370 10000.000 0.000 -0.516
108 324.00 1500.01 433 1288 0.370 10000.000 0.000 -0.516
109 327.00 1500.01 424 1231 0.370 10000.000 0.000 -0.516
110 330.00 1500.01 482 1262 0.370 10000.000 0.000 -0.516
111 333.00 1500.01 434 1190 0.370 10000.000 0.000 -0.516
112 336.00 1500.01 451 1272 0.370 10000.000 0.000 -0.516
113 339.00 1500.01 403 1182 0.370 10000.000 0.000 -0.516
114 342.00 1500.01 449 1211 0.370 10000.000 0.000 -0.516
115 345.00 1500.01 418 1200 0.370 10000.000 0.000 -0.516
116 348.00 1500.01 432 1296 0.370 10000.000 0.000 -0.516
117 351.00 1500.01 414 1234 0.370 10000.000 0.000 -0.516
118 354.00 1500.01 449 1280 0.370 10000.000 0.000 -0.516
119 357.00 1500.01 432 1214 0.370 10000.000 0.000 -0.516
120 360.00 1500.01 412 1254 0.370 10000.000 0.000 -0.516
121 363.00 1500.01 445 1253 0.370 10000.000 0.000 -0.516
122 366.00 1500.01 430 1258 0.370 10000.000 0.000 -0.516
123 369.00 1500.01 414 1191 0.370 10000.000 0.000 -0.516
124 372.00 1500.01 444 1221 0.370 10000.000 0.000 -0.516
125 375.00 1500.01 464 1220 0.370 10000.000 0.000 -0.516
126 378.00 1500.01 484 1201 0.370 10000.000 0.000 -0.516
127 381.00 1500.01 481 1293 0.370 10000.000 0.000 -0.516
128 384.00 1500.01 471 1179 0.370 10000.000 0.000 -0.516
129 387.00 1500.01 447 1249 0.370 10000.000 0.000 -0.516
130 390.00 1500.01 434 1298 0.370 10000.000 0.000 -0.516
131 393.00 1500.01 432 1277 0.370 10000.000 0.000 -0.516
132 396.00 1500.01 464 1263 0.370 10000.000 0.000 -0.516
133 399.00 1500.01 468 1221 0.370 10000.000 0.000 -0.516
134 402.00 1500.01 475 1213 0.370 10000.000 0.000 -0.516
135 405.00 1500.01 477 1195 0.370 10000.000 0.000 -0.516
136 408.00 1500.01 430 1348 0.370 10000.000 0.000 -0.516
137 411.00 1500.01 451 1218 0.370 10000.000 0.000 -0.516
138 414.00 1500.01 442 1236 0.370 10000.000 0.000 -0.516
139 417.00 1500.01 447 1206 0.370 10000.000 0.000 -0.516
140 420.00 1500.01 472 1232 0.370 10000.000 0.000 -0.516
141 423.00 1500.01 418 1188 0.370 10000.000 0.000 -0.516
142 426.00 1500.01 455 1249 0.370 10000.000 0.000 -0.516
143 429.00 1500.01 418 1203 0.370 10000.000 0.000 -0.516
144 432.00 1500.01 472 1264 0.370 10000.000 0.000 -0.516
