# BinNR microsec tot-time (s)  O-Beam AUX Ampl(V) f(Hz) phase(deg) chi(pos)
0 0.00 1500.05 45 141 0.370 10000.000 0.000 0.670
1 3.00 1500.05 88 265 0.370 10000.000 0.000 0.670
2 6.00 1500.05 102 284 0.370 10000.000 0.000 0.670
3 9.00 1500.05 105 270 0.370 10000.000 0.000 0.670
4 12.00 1500.05 107 265 0.370 10000.000 0.000 0.670
5 15.00 1500.05 108 264 0.370 10000.000 0.000 0.670
6 18.00 1500.05 102 283 0.370 10000.000 0.000 0.670
7 21.00 1500.05 89 254 0.370 10000.000 0.000 0.670
8 24.00 1500.05 97 241 0.370 10000.000 0.000 0.670
9 27.00 1500.05 97 242 0.370 10000.000 0.000 0.670
10 30.00 1500.05 94 256 0.370 10000.000 0.000 0.670
11 33.00 1500.05 96 233 0.370 10000.000 0.000 0.670
12 36.00 1500.05 78 236 0.370 10000.000 0.000 0.670
13 39.00 1500.05 87 243 0.370 10000.000 0.000 0.670
14 42.00 1500.05 91 243 0.370 10000.000 0.000 0.670
15 45.00 1500.05 102 252 0.370 10000.000 0.000 0.670
16 48.00 1500.05 113 249 0.370 10000.000 0.000 0.670
17 51.00 1500.05 98 247 0.370 10000.000 0.000 0.670
18 54.00 1500.05 125 264 0.370 10000.000 0.000 0.670
19 57.00 1500.05 96 245 0.370 10000.000 0.000 0.670
20 60.00 1500.05 96 269 0.370 10000.000 0.000 0.670
21 63.00 1500.05 120 259 0.370 10000.000 0.000 0.670
22 66.00 1500.05 98 249 0.370 10000.000 0.000 0.670
23 69.00 1500.05 87 265 0.370 10000.000 0.000 0.670
24 72.00 1500.05 125 215 0.370 10000.000 0.000 0.670
25 75.00 1500.05 106 203 0.370 10000.000 0.000 0.670
26 78.00 1500.05 105 245 0.370 10000.000 0.000 0.670
27 81.00 1500.05 112 205 0.370 10000.000 0.000 0.670
28 84.00 1500.05 97 215 0.370 10000.000 0.000 0.670
29 87.00 1500.05 114 195 0.370 10000.000 0.000 0.670
30 90.00 1500.05 110 200 0.370 10000.000 0.000 0.670
31 93.00 1500.05 127 173 0.370 10000.000 0.000 0.670
32 96.00 1500.05 98 186 0.370 10000.000 0.000 0.670
33 99.00 1500.05 103 181 0.370 10000.000 0.000 0.670
34 102.00 1500.05 108 207 0.370 10000.000 0.000 0.670
35 105.00 1500.05 103 204 0.370 10000.000 0.000 0.670
36 108.00 1500.05 114 193 0.370 10000.000 0.000 0.670
37 111.00 1500.05 92 197 0.370 10000.000 0.000 0.670
38 114.00 1500.05 85 211 0.370 10000.000 0.000 0.670
39 117.00 1500.05 123 208 0.370 10000.000 0.000 0.670
40 120.00 1500.05 84 212 0.370 10000.000 0.000 0.670
41 123.00 1500.05 90 214 0.370 10000.000 0.000 0.670
42 126.00 1500.05 86 233 0.370 10000.000 0.000 0.670
43 129.00 1500.05 100 254 0.370 10000.000 0.000 0.670
44 132.00 1500.05 108 269 0.370 10000.000 0.000 0.670
45 135.00 1500.05 88 276 0.370 10000.000 0.000 0.670
46 138.00 1500.05 107 274 0.370 10000.000 0.000 0.670
47 141.00 1500.05 113 276 0.370 10000.000 0.000 0.670
48 144.00 1500.05 97 275 0.370 10000.000 0.000 0.670
49 147.00 1500.05 97 284 0.370 10000.000 0.000 0.670
50 150.00 1500.05 90 329 0.370 10000.000 0.000 0.670
51 153.00 1500.05 108 301 0.370 10000.000 0.000 0.670
52 156.00 1500.05 109 296 0.370 10000.000 0.000 0.670
53 159.00 1500.05 102 295 0.370 10000.000 0.000 0.670
54 162.00 1500.05 92 245 0.370 10000.000 0.000 0.670
55 165.00 1500.05 103 277 0.370 10000.000 0.000 0.670
56 168.00 1500.05 130 271 0.370 10000.000 0.000 0.670
57 171.00 1500.05 103 282 0.370 10000.000 0.000 0.670
58 174.00 1500.05 127 238 0.370 10000.000 0.000 0.670
59 177.00 1500.05 103 224 0.370 10000.000 0.000 0.670
60 180.00 1500.05 93 228 0.370 10000.000 0.000 0.670
61 183.00 1500.05 108 224 0.370 10000.000 0.000 0.670
62 186.00 1500.05 105 191 0.370 10000.000 0.000 0.670
63 189.00 1500.05 114 206 0.370 10000.000 0.000 0.670
64 192.00 1500.05 114 217 0.370 10000.000 0.000 0.670
65 195.00 1500.05 105 187 0.370 10000.000 0.000 0.670
66 198.00 1500.05 99 183 0.370 10000.000 0.000 0.670
67 201.00 1500.05 111 192 0.370 10000.000 0.000 0.670
68 204.00 1500.05 90 191 0.370 10000.000 0.000 0.670
69 207.00 1500.05 93 176 0.370 10000.000 0.000 0.670
70 210.00 1500.05 107 199 0.370 10000.000 0.000 0.670
71 213.00 1500.05 95 171 0.370 10000.000 0.000 0.670
72 216.00 1500.05 100 186 0.370 10000.000 0.000 0.670
73 219.00 1500.05 111 217 0.370 10000.000 0.000 0.670
74 222.00 1500.05 103 250 0.370 10000.000 0.000 0.670
75 225.00 1500.05 114 196 0.370 10000.000 0.000 0.670
76 228.00 1500.05 92 233 0.370 10000.000 0.000 0.670
77 231.00 1500.05 105 253 0.370 10000.000 0.000 0.670
78 234.00 1500.05 96 241 0.370 10000.000 0.000 0.670
79 237.00 1500.05 115 285 0.370 10000.000 0.000 0.670
80 240.00 1500.05 90 290 0.370 10000.000 0.000 0.670
81 243.00 1500.05 89 296 0.370 10000.000 0.000 0.670
82 246.00 1500.05 98 275 0.370 10000.000 0.000 0.670
83 249.00 1500.05 90 279 0.370 10000.000 0.000 0.670
84 252.00 1500.05 100 280 0.370 10000.000 0.000 0.670
85 255.00 1500.05 102 291 0.370 10000.000 0.000 0.670
86 258.00 1500.05 104 283 0.370 10000.000 0.000 0.670
87 261.00 1500.05 114 255 0.370 10000.000 0.000 0.670
88 264.00 1500.05 111 274 0.370 10000.000 0.000 0.670
89 267.00 1500.05 93 268 0.370 10000.000 0.000 0.670
90 270.00 1500.05 100 228 0.370 10000.000 0.000 0.670
91 273.00 1500.05 112 229 0.370 10000.000 0.000 0.670
92 276.00 1500.05 111 212 0.370 10000.000 0.000 0.670
93 279.00 1500.05 121 199 0.370 10000.000 0.000 0.670
94 282.00 1500.05 101 220 0.370 10000.000 0.000 0.670
95 285.00 1500.05 104 193 0.370 10000.000 0.000 0.670
96 288.00 1500.05 111 179 0.370 10000.000 0.000 0.670
97 291.00 1500.05 110 171 0.370 10000.000 0.000 0.670
98 294.00 1500.05 96 184 0.370 10000.000 0.000 0.670
99 297.00 1500.05 95 205 0.370 10000.000 0.000 0.670
100 300.00 1500.05 100 179 0.370 10000.000 0.000 0.670
101 303.00 1500.05 90 169 0.370 10000.000 0.000 0.670
102 306.00 1500.05 112 181 0.370 10000.000 0.000 0.670
103 309.00 1500.05 98 196 0.370 10000.000 0.000 0.670
104 312.00 1500.05 108 199 0.370 10000.000 0.000 0.670
105 315.00 1500.05 104 215 0.370 10000.000 0.000 0.670
106 318.00 1500.05 111 217 0.370 10000.000 0.000 0.670
107 321.00 1500.05 125 237 0.370 10000.000 0.000 0.670
108 324.00 1500.05 93 222 0.370 10000.000 0.000 0.670
109 327.00 1500.05 80 247 0.370 10000.000 0.000 0.670
110 330.00 1500.05 118 269 0.370 10000.000 0.000 0.670
111 333.00 1500.05 99 234 0.370 10000.000 0.000 0.670
112 336.00 1500.05 99 264 0.370 10000.000 0.000 0.670
113 339.00 1500.05 117 262 0.370 10000.000 0.000 0.670
114 342.00 1500.05 111 301 0.370 10000.000 0.000 0.670
115 345.00 1500.05 107 269 0.370 10000.000 0.000 0.670
116 348.00 1500.05 89 304 0.370 10000.000 0.000 0.670
117 351.00 1500.05 102 293 0.370 10000.000 0.000 0.670
118 354.00 1500.05 83 261 0.370 10000.000 0.000 0.670
119 357.00 1500.05 97 290 0.370 10000.000 0.000 0.670
120 360.00 1500.05 97 291 0.370 10000.000 0.000 0.670
121 363.00 1500.05 106 268 0.370 10000.000 0.000 0.670
122 366.00 1500.05 85 261 0.370 10000.000 0.000 0.670
123 369.00 1500.05 74 257 0.370 10000.000 0.000 0.670
124 372.00 1500.05 86 252 0.370 10000.000 0.000 0.670
125 375.00 1500.05 105 237 0.370 10000.000 0.000 0.670
126 378.00 1500.05 98 243 0.370 10000.000 0.000 0.670
127 381.00 1500.05 102 204 0.370 10000.000 0.000 0.670
128 384.00 1500.05 91 221 0.370 10000.000 0.000 0.670
129 387.00 1500.05 117 227 0.370 10000.000 0.000 0.670
130 390.00 1500.05 95 194 0.370 10000.000 0.000 0.670
131 393.00 1500.05 93 156 0.370 10000.000 0.000 0.670
132 396.00 1500.05 106 168 0.370 10000.000 0.000 0.670
133 399.00 1500.05 111 174 0.370 10000.000 0.000 0.670
134 402.00 1500.05 95 193 0.370 10000.000 0.000 0.670
135 405.00 1500.05 121 182 0.370 10000.000 0.000 0.670
136 408.00 1500.05 103 199 0.370 10000.000 0.000 0.670
137 411.00 1500.05 102 170 0.370 10000.000 0.000 0.670
138 414.00 1500.05 111 228 0.370 10000.000 0.000 0.670
139 417.00 1500.05 102 218 0.370 10000.000 0.000 0.670
140 420.00 1500.05 120 215 0.370 10000.000 0.000 0.670
141 423.00 1500.05 119 212 0.370 10000.000 0.000 0.670
142 426.00 1500.05 127 256 0.370 10000.000 0.000 0.670
143 429.00 1500.05 120 263 0.370 10000.000 0.000 0.670
144 432.00 1500.05 106 234 0.370 10000.000 0.000 0.670
