# BinNR microsec tot-time (s)  O-Beam AUX Ampl_1(V) f_1(Hz) phase_1(deg) Ampl_2(V) f_2(Hz) phase_2(deg) chi(pos)
0 0.00 1500.05 101 302 0.740 10000.000 0.000 0.610 15000.000 0.000 1.176
1 3.00 1500.05 263 590 0.740 10000.000 0.000 0.610 15000.000 0.000 1.176
2 6.00 1500.05 221 563 0.740 10000.000 0.000 0.610 15000.000 0.000 1.176
3 9.00 1500.05 213 576 0.740 10000.000 0.000 0.610 15000.000 0.000 1.176
4 12.00 1500.05 235 539 0.740 10000.000 0.000 0.610 15000.000 0.000 1.176
5 15.00 1500.05 227 602 0.740 10000.000 0.000 0.610 15000.000 0.000 1.176
6 18.00 1500.05 242 561 0.740 10000.000 0.000 0.610 15000.000 0.000 1.176
7 21.00 1500.05 236 596 0.740 10000.000 0.000 0.610 15000.000 0.000 1.176
8 24.00 1500.05 268 604 0.740 10000.000 0.000 0.610 15000.000 0.000 1.176
9 27.00 1500.05 247 633 0.740 10000.000 0.000 0.610 15000.000 0.000 1.176
10 30.00 1500.05 240 659 0.740 10000.000 0.000 0.610 15000.000 0.000 1.176
11 33.00 1500.05 233 674 0.740 10000.000 0.000 0.610 15000.000 0.000 1.176
12 36.00 1500.05 243 631 0.740 10000.000 0.000 0.610 15000.000 0.000 1.176
13 39.00 1500.05 250 664 0.740 10000.000 0.000 0.610 15000.000 0.000 1.176
14 42.00 1500.05 229 646 0.740 10000.000 0.000 0.610 15000.000 0.000 1.176
15 45.00 1500.05 252 639 0.740 10000.000 0.000 0.610 15000.000 0.000 1.176
16 48.00 1500.05 268 646 0.740 10000.000 0.000 0.610 15000.000 0.000 1.176
17 51.00 1500.05 245 572 0.740 10000.000 0.000 0.610 15000.000 0.000 1.176
18 54.00 1500.05 221 562 0.740 10000.000 0.000 0.610 15000.000 0.000 1.176
19 57.00 1500.05 218 564 0.740 10000.000 0.000 0.610 15000.000 0.000 1.176
20 60.00 1500.05 224 613 0.740 10000.000 0.000 0.610 15000.000 0.000 1.176
21 63.00 1500.05 227 577 0.740 10000.000 0.000 0.610 15000.000 0.000 1.176
22 66.00 1500.05 225 654 0.740 10000.000 0.000 0.610 15000.000 0.000 1.176
23 69.00 1500.05 237 632 0.740 10000.000 0.000 0.610 15000.000 0.000 1.176
24 72.00 1500.05 235 652 0.740 10000.000 0.000 0.610 15000.000 0.000 1.176
25 75.00 1500.05 226 650 0.740 10000.000 0.000 0.610 15000.000 0.000 1.176
26 78.00 1500.05 227 679 0.740 10000.000 0.000 0.610 15000.000 0.000 1.176
27 81.00 1500.05 211 665 0.740 10000.000 0.000 0.610 15000.000 0.000 1.176
28 84.00 1500.05 207 743 0.740 10000.000 0.000 0.610 15000.000 0.000 1.176
29 87.00 1500.05 195 658 0.740 10000.000 0.000 0.610 15000.000 0.000 1.176
30 90.00 1500.05 185 664 0.740 10000.000 0.000 0.610 15000.000 0.000 1.176
31 93.00 1500.05 242 702 0.740 10000.000 0.000 0.610 15000.000 0.000 1.176
32 96.00 1500.05 239 737 0.740 10000.000 0.000 0.610 15000.000 0.000 1.176
33 99.00 1500.05 191 643 0.740 10000.000 0.000 0.610 15000.000 0.000 1.176
34 102.00 1500.05 193 682 0.740 10000.000 0.000 0.610 15000.000 0.000 1.176
35 105.00 1500.05 203 650 0.740 10000.000 0.000 0.610 15000.000 0.000 1.176
36 108.00 1500.05 202 630 0.740 10000.000 0.000 0.610 15000.000 0.000 1.176
37 111.00 1500.05 222 575 0.740 10000.000 0.000 0.610 15000.000 0.000 1.176
38 114.00 1500.05 228 659 0.740 10000.000 0.000 0.610 15000.000 0.000 1.176
39 117.00 1500.05 247 648 0.740 10000.000 0.000 0.610 15000.000 0.000 1.176
40 120.00 1500.05 242 651 0.740 10000.000 0.000 0.610 15000.000 0.000 1.176
41 123.00 1500.05 232 591 0.740 10000.000 0.000 0.610 15000.000 0.000 1.176
42 126.00 1500.05 236 567 0.740 10000.000 0.000 0.610 15000.000 0.000 1.176
43 129.00 1500.05 227 636 0.740 10000.000 0.000 0.610 15000.000 0.000 1.176
44 132.00 1500.05 247 617 0.740 10000.000 0.000 0.610 15000.000 0.000 1.176
45 135.00 1500.05 237 659 0.740 10000.000 0.000 0.610 15000.000 0.000 1.176
46 138.00 1500.05 242 621 0.740 10000.000 0.000 0.610 15000.000 0.000 1.176
47 141.00 1500.05 229 673 0.740 10000.000 0.000 0.610 15000.000 0.000 1.176
48 144.00 1500.05 251 660 0.740 10000.000 0.000 0.610 15000.000 0.000 1.176
49 147.00 1500.05 234 663 0.740 10000.000 0.000 0.610 15000.000 0.000 1.176
50 150.00 1500.05 246 618 0.740 10000.000 0.000 0.610 15000.000 0.000 1.176
51 153.00 1500.05 214 610 0.740 10000.000 0.000 0.610 15000.000 0.000 1.176
52 156.00 1500.05 225 640 0.740 10000.000 0.000 0.610 15000.000 0.000 1.176
53 159.00 1500.05 228 624 0.740 10000.000 0.000 0.610 15000.000 0.000 1.176
54 162.00 1500.05 230 630 0.740 10000.000 0.000 0.610 15000.000 0.000 1.176
55 165.00 1500.05 231 635 0.740 10000.000 0.000 0.610 15000.000 0.000 1.176
56 168.00 1500.05 241 627 0.740 10000.000 0.000 0.610 15000.000 0.000 1.176
57 171.00 1500.05 244 626 0.740 10000.000 0.000 0.610 15000.000 0.000 1.176
58 174.00 1500.05 205 606 0.740 10000.000 0.000 0.610 15000.000 0.000 1.176
59 177.00 1500.05 237 635 0.740 10000.000 0.000 0.610 15000.000 0.000 1.176
60 180.00 1500.05 243 631 0.740 10000.000 0.000 0.610 15000.000 0.000 1.176
61 183.00 1500.05 239 664 0.740 10000.000 0.000 0.610 15000.000 0.000 1.176
62 186.00 1500.05 242 675 0.740 10000.000 0.000 0.610 15000.000 0.000 1.176
63 189.00 1500.05 235 652 0.740 10000.000 0.000 0.610 15000.000 0.000 1.176
64 192.00 1500.05 231 630 0.740 10000.000 0.000 0.610 15000.000 0.000 1.176
65 195.00 1500.05 237 720 0.740 10000.000 0.000 0.610 15000.000 0.000 1.176
66 198.00 1500.05 233 693 0.740 10000.000 0.000 0.610 15000.000 0.000 1.176
67 201.00 1500.05 222 674 0.740 10000.000 0.000 0.610 15000.000 0.000 1.176
68 204.00 1500.05 228 680 0.740 10000.000 0.000 0.610 15000.000 0.000 1.176
69 207.00 1500.05 218 654 0.740 10000.000 0.000 0.610 15000.000 0.000 1.176
70 210.00 1500.05 237 726 0.740 10000.000 0.000 0.610 15000.000 0.000 1.176
71 213.00 1500.05 242 697 0.740 10000.000 0.000 0.610 15000.000 0.000 1.176
72 216.00 1500.05 246 604 0.740 10000.000 0.000 0.610 15000.000 0.000 1.176
73 219.00 1500.05 228 719 0.740 10000.000 0.000 0.610 15000.000 0.000 1.176
74 222.00 1500.05 233 678 0.740 10000.000 0.000 0.610 15000.000 0.000 1.176
75 225.00 1500.05 235 659 0.740 10000.000 0.000 0.610 15000.000 0.000 1.176
76 228.00 1500.05 242 676 0.740 10000.000 0.000 0.610 15000.000 0.000 1.176
77 231.00 1500.05 249 574 0.740 10000.000 0.000 0.610 15000.000 0.000 1.176
78 234.00 1500.05 231 544 0.740 10000.000 0.000 0.610 15000.000 0.000 1.176
79 237.00 1500.05 225 543 0.740 10000.000 0.000 0.610 15000.000 0.000 1.176
80 240.00 1500.05 257 542 0.740 10000.000 0.000 0.610 15000.000 0.000 1.176
81 243.00 1500.05 237 498 0.740 10000.000 0.000 0.610 15000.000 0.000 1.176
82 246.00 1500.05 246 529 0.740 10000.000 0.000 0.610 15000.000 0.000 1.176
83 249.00 1500.05 221 506 0.740 10000.000 0.000 0.610 15000.000 0.000 1.176
84 252.00 1500.05 238 558 0.740 10000.000 0.000 0.610 15000.000 0.000 1.176
85 255.00 1500.05 225 542 0.740 10000.000 0.000 0.610 15000.000 0.000 1.176
86 258.00 1500.05 212 566 0.740 10000.000 0.000 0.610 15000.000 0.000 1.176
87 261.00 1500.05 246 542 0.740 10000.000 0.000 0.610 15000.000 0.000 1.176
88 264.00 1500.05 241 673 0.740 10000.000 0.000 0.610 15000.000 0.000 1.176
89 267.00 1500.05 238 587 0.740 10000.000 0.000 0.610 15000.000 0.000 1.176
90 270.00 1500.05 213 642 0.740 10000.000 0.000 0.610 15000.000 0.000 1.176
91 273.00 1500.05 215 676 0.740 10000.000 0.000 0.610 15000.000 0.000 1.176
92 276.00 1500.05 222 689 0.740 10000.000 0.000 0.610 15000.000 0.000 1.176
93 279.00 1500.05 213 671 0.740 10000.000 0.000 0.610 15000.000 0.000 1.176
94 282.00 1500.05 243 730 0.740 10000.000 0.000 0.610 15000.000 0.000 1.176
95 285.00 1500.05 229 663 0.740 10000.000 0.000 0.610 15000.000 0.000 1.176
96 288.00 1500.05 211 705 0.740 10000.000 0.000 0.610 15000.000 0.000 1.176
97 291.00 1500.05 246 659 0.740 10000.000 0.000 0.610 15000.000 0.000 1.176
98 294.00 1500.05 238 708 0.740 10000.000 0.000 0.610 15000.000 0.000 1.176
99 297.00 1500.05 209 663 0.740 10000.000 0.000 0.610 15000.000 0.000 1.176
100 300.00 1500.05 268 709 0.740 10000.000 0.000 0.610 15000.000 0.000 1.176
101 303.00 1500.05 242 642 0.740 10000.000 0.000 0.610 15000.000 0.000 1.176
102 306.00 1500.05 242 671 0.740 10000.000 0.000 0.610 15000.000 0.000 1.176
103 309.00 1500.05 237 651 0.740 10000.000 0.000 0.610 15000.000 0.000 1.176
104 312.00 1500.05 224 654 0.740 10000.000 0.000 0.610 15000.000 0.000 1.176
105 315.00 1500.05 231 569 0.740 10000.000 0.000 0.610 15000.000 0.000 1.176
106 318.00 1500.05 237 607 0.740 10000.000 0.000 0.610 15000.000 0.000 1.176
107 321.00 1500.05 238 622 0.740 10000.000 0.000 0.610 15000.000 0.000 1.176
108 324.00 1500.05 215 584 0.740 10000.000 0.000 0.610 15000.000 0.000 1.176
109 327.00 1500.05 234 589 0.740 10000.000 0.000 0.610 15000.000 0.000 1.176
110 330.00 1500.05 212 616 0.740 10000.000 0.000 0.610 15000.000 0.000 1.176
111 333.00 1500.05 230 634 0.740 10000.000 0.000 0.610 15000.000 0.000 1.176
112 336.00 1500.05 201 609 0.740 10000.000 0.000 0.610 15000.000 0.000 1.176
113 339.00 1500.05 240 646 0.740 10000.000 0.000 0.610 15000.000 0.000 1.176
114 342.00 1500.05 244 620 0.740 10000.000 0.000 0.610 15000.000 0.000 1.176
115 345.00 1500.05 220 620 0.740 10000.000 0.000 0.610 15000.000 0.000 1.176
116 348.00 1500.05 219 649 0.740 10000.000 0.000 0.610 15000.000 0.000 1.176
117 351.00 1500.05 218 594 0.740 10000.000 0.000 0.610 15000.000 0.000 1.176
118 354.00 1500.05 216 675 0.740 10000.000 0.000 0.610 15000.000 0.000 1.176
119 357.00 1500.05 259 599 0.740 10000.000 0.000 0.610 15000.000 0.000 1.176
120 360.00 1500.05 228 630 0.740 10000.000 0.000 0.610 15000.000 0.000 1.176
121 363.00 1500.05 237 648 0.740 10000.000 0.000 0.610 15000.000 0.000 1.176
122 366.00 1500.05 254 628 0.740 10000.000 0.000 0.610 15000.000 0.000 1.176
123 369.00 1500.05 235 569 0.740 10000.000 0.000 0.610 15000.000 0.000 1.176
124 372.00 1500.05 246 614 0.740 10000.000 0.000 0.610 15000.000 0.000 1.176
125 375.00 1500.05 251 598 0.740 10000.000 0.000 0.610 15000.000 0.000 1.176
126 378.00 1500.05 229 635 0.740 10000.000 0.000 0.610 15000.000 0.000 1.176
127 381.00 1500.05 235 632 0.740 10000.000 0.000 0.610 15000.000 0.000 1.176
128 384.00 1500.05 252 643 0.740 10000.000 0.000 0.610 15000.000 0.000 1.176
129 387.00 1500.05 254 603 0.740 10000.000 0.000 0.610 15000.000 0.000 1.176
130 390.00 1500.05 241 606 0.740 10000.000 0.000 0.610 15000.000 0.000 1.176
131 393.00 1500.05 251 637 0.740 10000.000 0.000 0.610 15000.000 0.000 1.176
132 396.00 1500.05 226 686 0.740 10000.000 0.000 0.610 15000.000 0.000 1.176
133 399.00 1500.05 211 664 0.740 10000.000 0.000 0.610 15000.000 0.000 1.176
134 402.00 1500.05 230 651 0.740 10000.000 0.000 0.610 15000.000 0.000 1.176
135 405.00 1500.05 212 687 0.740 10000.000 0.000 0.610 15000.000 0.000 1.176
136 408.00 1500.05 241 710 0.740 10000.000 0.000 0.610 15000.000 0.000 1.176
137 411.00 1500.05 226 645 0.740 10000.000 0.000 0.610 15000.000 0.000 1.176
138 414.00 1500.05 223 702 0.740 10000.000 0.000 0.610 15000.000 0.000 1.176
139 417.00 1500.05 239 688 0.740 10000.000 0.000 0.610 15000.000 0.000 1.176
140 420.00 1500.05 222 670 0.740 10000.000 0.000 0.610 15000.000 0.000 1.176
141 423.00 1500.05 259 647 0.740 10000.000 0.000 0.610 15000.000 0.000 1.176
142 426.00 1500.05 256 627 0.740 10000.000 0.000 0.610 15000.000 0.000 1.176
143 429.00 1500.05 233 606 0.740 10000.000 0.000 0.610 15000.000 0.000 1.176
144 432.00 1500.05 244 603 0.740 10000.000 0.000 0.610 15000.000 0.000 1.176
