# BinNR microsec tot-time (s)  O-Beam AUX Ampl(V) f(Hz) phase(deg) chi(pos)
0 0.00 1500.01 133 398 1.000 10000.000 0.000 -1.000
1 3.00 1500.01 275 738 1.000 10000.000 0.000 -1.000
2 6.00 1500.01 263 777 1.000 10000.000 0.000 -1.000
3 9.00 1500.01 249 724 1.000 10000.000 0.000 -1.000
4 12.00 1500.01 268 739 1.000 10000.000 0.000 -1.000
5 15.00 1500.01 249 741 1.000 10000.000 0.000 -1.000
6 18.00 1500.01 296 752 1.000 10000.000 0.000 -1.000
7 21.00 1500.01 265 725 1.000 10000.000 0.000 -1.000
8 24.00 1500.01 245 707 1.000 10000.000 0.000 -1.000
9 27.00 1500.01 261 737 1.000 10000.000 0.000 -1.000
10 30.00 1500.01 249 695 1.000 10000.000 0.000 -1.000
11 33.00 1500.01 241 698 1.000 10000.000 0.000 -1.000
12 36.00 1500.01 231 737 1.000 10000.000 0.000 -1.000
13 39.00 1500.01 252 669 1.000 10000.000 0.000 -1.000
14 42.00 1500.01 245 715 1.000 10000.000 0.000 -1.000
15 45.00 1500.01 261 676 1.000 10000.000 0.000 -1.000
16 48.00 1500.01 236 681 1.000 10000.000 0.000 -1.000
17 51.00 1500.01 264 739 1.000 10000.000 0.000 -1.000
18 54.00 1500.01 236 684 1.000 10000.000 0.000 -1.000
19 57.00 1500.01 256 722 1.000 10000.000 0.000 -1.000
20 60.00 1500.01 273 715 1.000 10000.000 0.000 -1.000
21 63.00 1500.01 249 717 1.000 10000.000 0.000 -1.000
22 66.00 1500.01 263 757 1.000 10000.000 0.000 -1.000
23 69.00 1500.01 247 710 1.000 10000.000 0.000 -1.000
24 72.00 1500.01 266 718 1.000 10000.000 0.000 -1.000
25 75.00 1500.01 245 715 1.000 10000.000 0.000 -1.000
26 78.00 1500.01 265 744 1.000 10000.000 0.000 -1.000
27 81.00 1500.01 252 704 1.000 10000.000 0.000 -1.000
28 84.00 1500.01 264 766 1.000 10000.000 0.000 -1.000
29 87.00 1500.01 245 751 1.000 10000.000 0.000 -1.000
30 90.00 1500.01 274 783 1.000 10000.000 0.000 -1.000
31 93.00 1500.01 275 713 1.000 10000.000 0.000 -1.000
32 96.00 1500.01 251 736 1.000 10000.000 0.000 -1.000
33 99.00 1500.01 266 758 1.000 10000.000 0.000 -1.000
34 102.00 1500.01 245 785 1.000 10000.000 0.000 -1.000
35 105.00 1500.01 267 748 1.000 10000.000 0.000 -1.000
36 108.00 1500.01 283 764 1.000 10000.000 0.000 -1.000
37 111.00 1500.01 253 740 1.000 10000.000 0.000 -1.000
38 114.00 1500.01 289 763 1.000 10000.000 0.000 -1.000
39 117.00 1500.01 257 735 1.000 10000.000 0.000 -1.000
40 120.00 1500.01 268 759 1.000 10000.000 0.000 -1.000
41 123.00 1500.01 236 675 1.000 10000.000 0.000 -1.000
42 126.00 1500.01 261 731 1.000 10000.000 0.000 -1.000
43 129.00 1500.01 244 695 1.000 10000.000 0.000 -1.000
44 132.00 1500.01 295 707 1.000 10000.000 0.000 -1.000
45 135.00 1500.01 243 745 1.000 10000.000 0.000 -1.000
46 138.00 1500.01 287 796 1.000 10000.000 0.000 -1.000
47 141.00 1500.01 278 726 1.000 10000.000 0.000 -1.000
48 144.00 1500.01 250 737 1.000 10000.000 0.000 -1.000
49 147.00 1500.01 258 665 1.000 10000.000 0.000 -1.000
50 150.00 1500.01 273 713 1.000 10000.000 0.000 -1.000
51 153.00 1500.01 260 647 1.000 10000.000 0.000 -1.000
52 156.00 1500.01 252 725 1.000 10000.000 0.000 -1.000
53 159.00 1500.01 242 697 1.000 10000.000 0.000 -1.000
54 162.00 1500.01 271 700 1.000 10000.000 0.000 -1.000
55 165.00 1500.01 256 655 1.000 10000.000 0.000 -1.000
56 168.00 1500.01 248 711 1.000 10000.000 0.000 -1.000
57 171.00 1500.01 241 724 1.000 10000.000 0.000 -1.000
58 174.00 1500.01 264 714 1.000 10000.000 0.000 -1.000
59 177.00 1500.01 256 776 1.000 10000.000 0.000 -1.000
60 180.00 1500.01 254 799 1.000 10000.000 0.000 -1.000
61 183.00 1500.01 246 757 1.000 10000.000 0.000 -1.000
62 186.00 1500.01 257 802 1.000 10000.000 0.000 -1.000
63 189.00 1500.01 239 779 1.000 10000.000 0.000 -1.000
64 192.00 1500.01 248 714 1.000 10000.000 0.000 -1.000
65 195.00 1500.01 278 750 1.000 10000.000 0.000 -1.000
66 198.00 1500.01 269 748 1.000 10000.000 0.000 -1.000
67 201.00 1500.01 267 781 1.000 10000.000 0.000 -1.000
68 204.00 1500.01 269 752 1.000 10000.000 0.000 -1.000
69 207.00 1500.01 281 742 1.000 10000.000 0.000 -1.000
70 210.00 1500.01 281 771 1.000 10000.000 0.000 -1.000
71 213.00 1500.01 263 758 1.000 10000.000 0.000 -1.000
72 216.00 1500.01 264 789 1.000 10000.000 0.000 -1.000
73 219.00 1500.01 276 717 1.000 10000.000 0.000 -1.000
74 222.00 1500.01 276 742 1.000 10000.000 0.000 -1.000
75 225.00 1500.01 247 758 1.000 10000.000 0.000 -1.000
76 228.00 1500.01 251 754 1.000 10000.000 0.000 -1.000
77 231.00 1500.01 256 728 1.000 10000.000 0.000 -1.000
78 234.00 1500.01 251 712 1.000 10000.000 0.000 -1.000
79 237.00 1500.01 271 708 1.000 10000.000 0.000 -1.000
80 240.00 1500.01 241 717 1.000 10000.000 0.000 -1.000
81 243.00 1500.01 217 666 1.000 10000.000 0.000 -1.000
82 246.00 1500.01 245 691 1.000 10000.000 0.000 -1.000
83 249.00 1500.01 271 627 1.000 10000.000 0.000 -1.000
84 252.00 1500.01 273 693 1.000 10000.000 0.000 -1.000
85 255.00 1500.01 267 701 1.000 10000.000 0.000 -1.000
86 258.00 1500.01 264 691 1.000 10000.000 0.000 -1.000
87 261.00 1500.01 243 755 1.000 10000.000 0.000 -1.000
88 264.00 1500.01 244 724 1.000 10000.000 0.000 -1.000
89 267.00 1500.01 258 738 1.000 10000.000 0.000 -1.000
90 270.00 1500.01 275 751 1.000 10000.000 0.000 -1.000
91 273.00 1500.01 223 704 1.000 10000.000 0.000 -1.000
92 276.00 1500.01 261 761 1.000 10000.000 0.000 -1.000
93 279.00 1500.01 271 757 1.000 10000.000 0.000 -1.000
94 282.00 1500.01 259 708 1.000 10000.000 0.000 -1.000
95 285.00 1500.01 243 748 1.000 10000.000 0.000 -1.000
96 288.00 1500.01 285 719 1.000 10000.000 0.000 -1.000
97 291.00 1500.01 274 748 1.000 10000.000 0.000 -1.000
98 294.00 1500.01 253 816 1.000 10000.000 0.000 -1.000
99 297.00 1500.01 285 717 1.000 10000.000 0.000 -1.000
100 300.00 1500.01 272 747 1.000 10000.000 0.000 -1.000
101 303.00 1500.01 241 745 1.000 10000.000 0.000 -1.000
102 306.00 1500.01 257 716 1.000 10000.000 0.000 -1.000
103 309.00 1500.01 241 759 1.000 10000.000 0.000 -1.000
104 312.00 1500.01 227 771 1.000 10000.000 0.000 -1.000
105 315.00 1500.01 241 739 1.000 10000.000 0.000 -1.000
106 318.00 1500.01 301 742 1.000 10000.000 0.000 -1.000
107 321.00 1500.01 273 729 1.000 10000.000 0.000 -1.000
108 324.00 1500.01 268 719 1.000 10000.000 0.000 -1.000
109 327.00 1500.01 294 717 1.000 10000.000 0.000 -1.000
110 330.00 1500.01 258 703 1.000 10000.000 0.000 -1.000
111 333.00 1500.01 256 687 1.000 10000.000 0.000 -1.000
112 336.00 1500.01 246 705 1.000 10000.000 0.000 -1.000
113 339.00 1500.01 270 670 1.000 10000.000 0.000 -1.000
114 342.00 1500.01 263 707 1.000 10000.000 0.000 -1.000
115 345.00 1500.01 282 684 1.000 10000.000 0.000 -1.000
116 348.00 1500.01 232 686 1.000 10000.000 0.000 -1.000
117 351.00 1500.01 265 662 1.000 10000.000 0.000 -1.000
118 354.00 1500.01 242 662 1.000 10000.000 0.000 -1.000
119 357.00 1500.01 221 700 1.000 10000.000 0.000 -1.000
120 360.00 1500.01 242 783 1.000 10000.000 0.000 -1.000
121 363.00 1500.01 238 717 1.000 10000.000 0.000 -1.000
122 366.00 1500.01 291 675 1.000 10000.000 0.000 -1.000
123 369.00 1500.01 245 675 1.000 10000.000 0.000 -1.000
124 372.00 1500.01 262 716 1.000 10000.000 0.000 -1.000
125 375.00 1500.01 282 721 1.000 10000.000 0.000 -1.000
126 378.00 1500.01 266 764 1.000 10000.000 0.000 -1.000
127 381.00 1500.01 252 761 1.000 10000.000 0.000 -1.000
128 384.00 1500.01 255 759 1.000 10000.000 0.000 -1.000
129 387.00 1500.01 261 783 1.000 10000.000 0.000 -1.000
130 390.00 1500.01 261 761 1.000 10000.000 0.000 -1.000
131 393.00 1500.01 277 782 1.000 10000.000 0.000 -1.000
132 396.00 1500.01 235 760 1.000 10000.000 0.000 -1.000
133 399.00 1500.01 258 792 1.000 10000.000 0.000 -1.000
134 402.00 1500.01 263 757 1.000 10000.000 0.000 -1.000
