# BinNR microsec tot-time (s)  O-Beam AUX Ampl(V) f(Hz) phase(deg) chi(pos)
0 0.00 1500.02 104 217 1.000 10000.000 0.000 -0.516
1 3.00 1500.02 218 467 1.000 10000.000 0.000 -0.516
2 6.00 1500.02 212 432 1.000 10000.000 0.000 -0.516
3 9.00 1500.02 200 434 1.000 10000.000 0.000 -0.516
4 12.00 1500.02 173 443 1.000 10000.000 0.000 -0.516
5 15.00 1500.02 180 405 1.000 10000.000 0.000 -0.516
6 18.00 1500.02 173 415 1.000 10000.000 0.000 -0.516
7 21.00 1500.02 178 386 1.000 10000.000 0.000 -0.516
8 24.00 1500.02 170 345 1.000 10000.000 0.000 -0.516
9 27.00 1500.02 176 342 1.000 10000.000 0.000 -0.516
10 30.00 1500.02 151 354 1.000 10000.000 0.000 -0.516
11 33.00 1500.02 152 355 1.000 10000.000 0.000 -0.516
12 36.00 1500.02 139 369 1.000 10000.000 0.000 -0.516
13 39.00 1500.02 157 373 1.000 10000.000 0.000 -0.516
14 42.00 1500.02 140 353 1.000 10000.000 0.000 -0.516
15 45.00 1500.02 157 333 1.000 10000.000 0.000 -0.516
16 48.00 1500.02 172 331 1.000 10000.000 0.000 -0.516
17 51.00 1500.02 142 327 1.000 10000.000 0.000 -0.516
18 54.00 1500.02 150 315 1.000 10000.000 0.000 -0.516
19 57.00 1500.02 179 368 1.000 10000.000 0.000 -0.516
20 60.00 1500.02 175 370 1.000 10000.000 0.000 -0.516
21 63.00 1500.02 185 346 1.000 10000.000 0.000 -0.516
22 66.00 1500.02 166 389 1.000 10000.000 0.000 -0.516
23 69.00 1500.02 183 406 1.000 10000.000 0.000 -0.516
24 72.00 1500.02 192 388 1.000 10000.000 0.000 -0.516
25 75.00 1500.02 172 430 1.000 10000.000 0.000 -0.516
26 78.00 1500.02 190 387 1.000 10000.000 0.000 -0.516
27 81.00 1500.02 184 421 1.000 10000.000 0.000 -0.516
28 84.00 1500.02 178 474 1.000 10000.000 0.000 -0.516
29 87.00 1500.02 183 460 1.000 10000.000 0.000 -0.516
30 90.00 1500.02 181 484 1.000 10000.000 0.000 -0.516
31 93.00 1500.02 199 427 1.000 10000.000 0.000 -0.516
32 96.00 1500.02 204 449 1.000 10000.000 0.000 -0.516
33 99.00 1500.02 246 476 1.000 10000.000 0.000 -0.516
34 102.00 1500.02 214 439 1.000 10000.000 0.000 -0.516
35 105.00 1500.02 160 458 1.000 10000.000 0.000 -0.516
36 108.00 1500.02 209 471 1.000 10000.000 0.000 -0.516
37 111.00 1500.02 197 465 1.000 10000.000 0.000 -0.516
38 114.00 1500.02 182 449 1.000 10000.000 0.000 -0.516
39 117.00 1500.02 200 402 1.000 10000.000 0.000 -0.516
40 120.00 1500.02 197 417 1.000 10000.000 0.000 -0.516
41 123.00 1500.02 168 356 1.000 10000.000 0.000 -0.516
42 126.00 1500.02 165 371 1.000 10000.000 0.000 -0.516
43 129.00 1500.02 164 387 1.000 10000.000 0.000 -0.516
44 132.00 1500.02 167 345 1.000 10000.000 0.000 -0.516
45 135.00 1500.02 151 332 1.000 10000.000 0.000 -0.516
46 138.00 1500.02 157 355 1.000 10000.000 0.000 -0.516
47 141.00 1500.02 171 328 1.000 10000.000 0.000 -0.516
48 144.00 1500.02 155 317 1.000 10000.000 0.000 -0.516
49 147.00 1500.02 149 324 1.000 10000.000 0.000 -0.516
50 150.00 1500.02 147 311 1.000 10000.000 0.000 -0.516
51 153.00 1500.02 169 343 1.000 10000.000 0.000 -0.516
52 156.00 1500.02 159 356 1.000 10000.000 0.000 -0.516
53 159.00 1500.02 168 340 1.000 10000.000 0.000 -0.516
54 162.00 1500.02 159 357 1.000 10000.000 0.000 -0.516
55 165.00 1500.02 165 356 1.000 10000.000 0.000 -0.516
56 168.00 1500.02 183 378 1.000 10000.000 0.000 -0.516
57 171.00 1500.02 176 394 1.000 10000.000 0.000 -0.516
58 174.00 1500.02 170 378 1.000 10000.000 0.000 -0.516
59 177.00 1500.02 191 418 1.000 10000.000 0.000 -0.516
60 180.00 1500.02 186 450 1.000 10000.000 0.000 -0.516
61 183.00 1500.02 198 444 1.000 10000.000 0.000 -0.516
62 186.00 1500.02 199 515 1.000 10000.000 0.000 -0.516
63 189.00 1500.02 213 464 1.000 10000.000 0.000 -0.516
64 192.00 1500.02 210 482 1.000 10000.000 0.000 -0.516
65 195.00 1500.02 186 462 1.000 10000.000 0.000 -0.516
66 198.00 1500.02 200 455 1.000 10000.000 0.000 -0.516
67 201.00 1500.02 199 490 1.000 10000.000 0.000 -0.516
68 204.00 1500.02 196 457 1.000 10000.000 0.000 -0.516
69 207.00 1500.02 178 484 1.000 10000.000 0.000 -0.516
70 210.00 1500.02 169 482 1.000 10000.000 0.000 -0.516
71 213.00 1500.02 181 400 1.000 10000.000 0.000 -0.516
72 216.00 1500.02 187 470 1.000 10000.000 0.000 -0.516
73 219.00 1500.02 172 379 1.000 10000.000 0.000 -0.516
74 222.00 1500.02 153 410 1.000 10000.000 0.000 -0.516
75 225.00 1500.02 193 342 1.000 10000.000 0.000 -0.516
76 228.00 1500.02 156 361 1.000 10000.000 0.000 -0.516
77 231.00 1500.02 183 341 1.000 10000.000 0.000 -0.516
78 234.00 1500.02 145 371 1.000 10000.000 0.000 -0.516
79 237.00 1500.02 162 366 1.000 10000.000 0.000 -0.516
80 240.00 1500.02 177 312 1.000 10000.000 0.000 -0.516
81 243.00 1500.02 148 313 1.000 10000.000 0.000 -0.516
82 246.00 1500.02 167 320 1.000 10000.000 0.000 -0.516
83 249.00 1500.02 160 305 1.000 10000.000 0.000 -0.516
84 252.00 1500.02 177 326 1.000 10000.000 0.000 -0.516
85 255.00 1500.02 149 319 1.000 10000.000 0.000 -0.516
86 258.00 1500.02 170 359 1.000 10000.000 0.000 -0.516
87 261.00 1500.02 148 360 1.000 10000.000 0.000 -0.516
88 264.00 1500.02 181 381 1.000 10000.000 0.000 -0.516
89 267.00 1500.02 157 321 1.000 10000.000 0.000 -0.516
90 270.00 1500.02 171 398 1.000 10000.000 0.000 -0.516
91 273.00 1500.02 176 411 1.000 10000.000 0.000 -0.516
92 276.00 1500.02 179 402 1.000 10000.000 0.000 -0.516
93 279.00 1500.02 195 410 1.000 10000.000 0.000 -0.516
94 282.00 1500.02 186 414 1.000 10000.000 0.000 -0.516
95 285.00 1500.02 222 486 1.000 10000.000 0.000 -0.516
96 288.00 1500.02 207 459 1.000 10000.000 0.000 -0.516
97 291.00 1500.02 209 449 1.000 10000.000 0.000 -0.516
98 294.00 1500.02 178 479 1.000 10000.000 0.000 -0.516
99 297.00 1500.02 200 494 1.000 10000.000 0.000 -0.516
100 300.00 1500.02 196 491 1.000 10000.000 0.000 -0.516
101 303.00 1500.02 159 472 1.000 10000.000 0.000 -0.516
102 306.00 1500.02 209 465 1.000 10000.000 0.000 -0.516
103 309.00 1500.02 186 471 1.000 10000.000 0.000 -0.516
104 312.00 1500.02 174 446 1.000 10000.000 0.000 -0.516
105 315.00 1500.02 161 392 1.000 10000.000 0.000 -0.516
106 318.00 1500.02 195 452 1.000 10000.000 0.000 -0.516
107 321.00 1500.02 180 385 1.000 10000.000 0.000 -0.516
108 324.00 1500.02 196 425 1.000 10000.000 0.000 -0.516
109 327.00 1500.02 168 332 1.000 10000.000 0.000 -0.516
110 330.00 1500.02 153 380 1.000 10000.000 0.000 -0.516
111 333.00 1500.02 168 322 1.000 10000.000 0.000 -0.516
112 336.00 1500.02 143 321 1.000 10000.000 0.000 -0.516
113 339.00 1500.02 158 333 1.000 10000.000 0.000 -0.516
114 342.00 1500.02 169 359 1.000 10000.000 0.000 -0.516
115 345.00 1500.02 166 357 1.000 10000.000 0.000 -0.516
116 348.00 1500.02 138 350 1.000 10000.000 0.000 -0.516
117 351.00 1500.02 158 320 1.000 10000.000 0.000 -0.516
118 354.00 1500.02 150 367 1.000 10000.000 0.000 -0.516
119 357.00 1500.02 157 323 1.000 10000.000 0.000 -0.516
120 360.00 1500.02 158 352 1.000 10000.000 0.000 -0.516
121 363.00 1500.02 150 323 1.000 10000.000 0.000 -0.516
122 366.00 1500.02 159 360 1.000 10000.000 0.000 -0.516
123 369.00 1500.02 156 390 1.000 10000.000 0.000 -0.516
124 372.00 1500.02 181 420 1.000 10000.000 0.000 -0.516
125 375.00 1500.02 183 444 1.000 10000.000 0.000 -0.516
126 378.00 1500.02 195 425 1.000 10000.000 0.000 -0.516
127 381.00 1500.02 177 451 1.000 10000.000 0.000 -0.516
128 384.00 1500.02 189 478 1.000 10000.000 0.000 -0.516
129 387.00 1500.02 197 477 1.000 10000.000 0.000 -0.516
130 390.00 1500.02 186 468 1.000 10000.000 0.000 -0.516
131 393.00 1500.02 212 505 1.000 10000.000 0.000 -0.516
132 396.00 1500.02 193 488 1.000 10000.000 0.000 -0.516
133 399.00 1500.02 212 467 1.000 10000.000 0.000 -0.516
134 402.00 1500.02 202 454 1.000 10000.000 0.000 -0.516
