# BinNR microsec tot-time (s)  O-Beam AUX Ampl(V) f(Hz) phase(deg) chi(pos)
0 0.00 1500.02 103 286 1.000 10000.000 0.000 1.494
1 3.00 1500.02 186 467 1.000 10000.000 0.000 1.494
2 6.00 1500.02 187 462 1.000 10000.000 0.000 1.494
3 9.00 1500.02 192 495 1.000 10000.000 0.000 1.494
4 12.00 1500.02 183 463 1.000 10000.000 0.000 1.494
5 15.00 1500.02 195 470 1.000 10000.000 0.000 1.494
6 18.00 1500.02 215 463 1.000 10000.000 0.000 1.494
7 21.00 1500.02 211 420 1.000 10000.000 0.000 1.494
8 24.00 1500.02 200 432 1.000 10000.000 0.000 1.494
9 27.00 1500.02 199 365 1.000 10000.000 0.000 1.494
10 30.00 1500.02 166 447 1.000 10000.000 0.000 1.494
11 33.00 1500.02 166 382 1.000 10000.000 0.000 1.494
12 36.00 1500.02 161 371 1.000 10000.000 0.000 1.494
13 39.00 1500.02 171 396 1.000 10000.000 0.000 1.494
14 42.00 1500.02 169 405 1.000 10000.000 0.000 1.494
15 45.00 1500.02 169 411 1.000 10000.000 0.000 1.494
16 48.00 1500.02 167 386 1.000 10000.000 0.000 1.494
17 51.00 1500.02 127 376 1.000 10000.000 0.000 1.494
18 54.00 1500.02 178 402 1.000 10000.000 0.000 1.494
19 57.00 1500.02 185 394 1.000 10000.000 0.000 1.494
20 60.00 1500.02 204 425 1.000 10000.000 0.000 1.494
21 63.00 1500.02 192 392 1.000 10000.000 0.000 1.494
22 66.00 1500.02 215 400 1.000 10000.000 0.000 1.494
23 69.00 1500.02 169 428 1.000 10000.000 0.000 1.494
24 72.00 1500.02 185 393 1.000 10000.000 0.000 1.494
25 75.00 1500.02 178 457 1.000 10000.000 0.000 1.494
26 78.00 1500.02 223 460 1.000 10000.000 0.000 1.494
27 81.00 1500.02 213 498 1.000 10000.000 0.000 1.494
28 84.00 1500.02 201 503 1.000 10000.000 0.000 1.494
29 87.00 1500.02 224 505 1.000 10000.000 0.000 1.494
30 90.00 1500.02 190 511 1.000 10000.000 0.000 1.494
31 93.00 1500.02 234 482 1.000 10000.000 0.000 1.494
32 96.00 1500.02 240 497 1.000 10000.000 0.000 1.494
33 99.00 1500.02 196 539 1.000 10000.000 0.000 1.494
34 102.00 1500.02 201 519 1.000 10000.000 0.000 1.494
35 105.00 1500.02 214 522 1.000 10000.000 0.000 1.494
36 108.00 1500.02 204 524 1.000 10000.000 0.000 1.494
37 111.00 1500.02 207 489 1.000 10000.000 0.000 1.494
38 114.00 1500.02 191 457 1.000 10000.000 0.000 1.494
39 117.00 1500.02 202 451 1.000 10000.000 0.000 1.494
40 120.00 1500.02 192 459 1.000 10000.000 0.000 1.494
41 123.00 1500.02 186 433 1.000 10000.000 0.000 1.494
42 126.00 1500.02 191 441 1.000 10000.000 0.000 1.494
43 129.00 1500.02 183 420 1.000 10000.000 0.000 1.494
44 132.00 1500.02 163 414 1.000 10000.000 0.000 1.494
45 135.00 1500.02 164 354 1.000 10000.000 0.000 1.494
46 138.00 1500.02 172 388 1.000 10000.000 0.000 1.494
47 141.00 1500.02 174 381 1.000 10000.000 0.000 1.494
48 144.00 1500.02 164 327 1.000 10000.000 0.000 1.494
49 147.00 1500.02 163 343 1.000 10000.000 0.000 1.494
50 150.00 1500.02 167 357 1.000 10000.000 0.000 1.494
51 153.00 1500.02 170 378 1.000 10000.000 0.000 1.494
52 156.00 1500.02 189 373 1.000 10000.000 0.000 1.494
53 159.00 1500.02 141 410 1.000 10000.000 0.000 1.494
54 162.00 1500.02 192 402 1.000 10000.000 0.000 1.494
55 165.00 1500.02 192 378 1.000 10000.000 0.000 1.494
56 168.00 1500.02 178 412 1.000 10000.000 0.000 1.494
57 171.00 1500.02 188 419 1.000 10000.000 0.000 1.494
58 174.00 1500.02 212 439 1.000 10000.000 0.000 1.494
59 177.00 1500.02 207 462 1.000 10000.000 0.000 1.494
60 180.00 1500.02 205 504 1.000 10000.000 0.000 1.494
61 183.00 1500.02 194 473 1.000 10000.000 0.000 1.494
62 186.00 1500.02 214 465 1.000 10000.000 0.000 1.494
63 189.00 1500.02 206 499 1.000 10000.000 0.000 1.494
64 192.00 1500.02 239 502 1.000 10000.000 0.000 1.494
65 195.00 1500.02 196 511 1.000 10000.000 0.000 1.494
66 198.00 1500.02 194 540 1.000 10000.000 0.000 1.494
67 201.00 1500.02 207 465 1.000 10000.000 0.000 1.494
68 204.00 1500.02 214 519 1.000 10000.000 0.000 1.494
69 207.00 1500.02 207 505 1.000 10000.000 0.000 1.494
70 210.00 1500.02 201 487 1.000 10000.000 0.000 1.494
71 213.00 1500.02 224 469 1.000 10000.000 0.000 1.494
72 216.00 1500.02 204 455 1.000 10000.000 0.000 1.494
73 219.00 1500.02 195 460 1.000 10000.000 0.000 1.494
74 222.00 1500.02 186 454 1.000 10000.000 0.000 1.494
75 225.00 1500.02 202 385 1.000 10000.000 0.000 1.494
76 228.00 1500.02 175 401 1.000 10000.000 0.000 1.494
77 231.00 1500.02 185 371 1.000 10000.000 0.000 1.494
78 234.00 1500.02 177 402 1.000 10000.000 0.000 1.494
79 237.00 1500.02 172 359 1.000 10000.000 0.000 1.494
80 240.00 1500.02 160 352 1.000 10000.000 0.000 1.494
81 243.00 1500.02 205 325 1.000 10000.000 0.000 1.494
82 246.00 1500.02 171 356 1.000 10000.000 0.000 1.494
83 249.00 1500.02 156 326 1.000 10000.000 0.000 1.494
84 252.00 1500.02 177 360 1.000 10000.000 0.000 1.494
85 255.00 1500.02 171 361 1.000 10000.000 0.000 1.494
86 258.00 1500.02 160 377 1.000 10000.000 0.000 1.494
87 261.00 1500.02 177 374 1.000 10000.000 0.000 1.494
88 264.00 1500.02 191 407 1.000 10000.000 0.000 1.494
89 267.00 1500.02 212 388 1.000 10000.000 0.000 1.494
90 270.00 1500.02 171 405 1.000 10000.000 0.000 1.494
91 273.00 1500.02 177 443 1.000 10000.000 0.000 1.494
92 276.00 1500.02 198 423 1.000 10000.000 0.000 1.494
93 279.00 1500.02 224 471 1.000 10000.000 0.000 1.494
94 282.00 1500.02 194 519 1.000 10000.000 0.000 1.494
95 285.00 1500.02 199 484 1.000 10000.000 0.000 1.494
96 288.00 1500.02 226 509 1.000 10000.000 0.000 1.494
97 291.00 1500.02 228 526 1.000 10000.000 0.000 1.494
98 294.00 1500.02 223 545 1.000 10000.000 0.000 1.494
99 297.00 1500.02 185 539 1.000 10000.000 0.000 1.494
100 300.00 1500.02 231 511 1.000 10000.000 0.000 1.494
101 303.00 1500.02 226 530 1.000 10000.000 0.000 1.494
102 306.00 1500.02 204 494 1.000 10000.000 0.000 1.494
103 309.00 1500.02 187 533 1.000 10000.000 0.000 1.494
104 312.00 1500.02 193 500 1.000 10000.000 0.000 1.494
105 315.00 1500.02 183 418 1.000 10000.000 0.000 1.494
106 318.00 1500.02 200 447 1.000 10000.000 0.000 1.494
107 321.00 1500.02 174 477 1.000 10000.000 0.000 1.494
108 324.00 1500.02 184 466 1.000 10000.000 0.000 1.494
109 327.00 1500.02 187 428 1.000 10000.000 0.000 1.494
110 330.00 1500.02 169 402 1.000 10000.000 0.000 1.494
111 333.00 1500.02 177 388 1.000 10000.000 0.000 1.494
112 336.00 1500.02 155 380 1.000 10000.000 0.000 1.494
113 339.00 1500.02 141 386 1.000 10000.000 0.000 1.494
114 342.00 1500.02 174 362 1.000 10000.000 0.000 1.494
115 345.00 1500.02 163 357 1.000 10000.000 0.000 1.494
116 348.00 1500.02 201 361 1.000 10000.000 0.000 1.494
117 351.00 1500.02 158 331 1.000 10000.000 0.000 1.494
118 354.00 1500.02 179 404 1.000 10000.000 0.000 1.494
119 357.00 1500.02 172 374 1.000 10000.000 0.000 1.494
120 360.00 1500.02 169 386 1.000 10000.000 0.000 1.494
121 363.00 1500.02 186 382 1.000 10000.000 0.000 1.494
122 366.00 1500.02 156 424 1.000 10000.000 0.000 1.494
123 369.00 1500.02 168 424 1.000 10000.000 0.000 1.494
124 372.00 1500.02 198 457 1.000 10000.000 0.000 1.494
125 375.00 1500.02 184 466 1.000 10000.000 0.000 1.494
126 378.00 1500.02 215 468 1.000 10000.000 0.000 1.494
127 381.00 1500.02 212 494 1.000 10000.000 0.000 1.494
128 384.00 1500.02 210 519 1.000 10000.000 0.000 1.494
129 387.00 1500.02 197 521 1.000 10000.000 0.000 1.494
130 390.00 1500.02 177 524 1.000 10000.000 0.000 1.494
131 393.00 1500.02 200 503 1.000 10000.000 0.000 1.494
132 396.00 1500.02 218 508 1.000 10000.000 0.000 1.494
133 399.00 1500.02 199 486 1.000 10000.000 0.000 1.494
134 402.00 1500.02 201 528 1.000 10000.000 0.000 1.494
