# BinNR microsec tot-time (s)  O-Beam H-beam AUX Ampl(V) f(Hz) phase(deg) chi(pos)
0 0.00 900.00 94 714 0 0.000 5.373 2000.000 0.802
1 25.00 900.00 91 657 2 0.000 5.373 2000.000 0.802
2 50.00 900.00 109 585 4 0.000 5.373 2000.000 0.802
3 75.00 900.00 113 453 5 0.000 5.373 2000.000 0.802
4 100.00 900.00 89 399 3 0.000 5.373 2000.000 0.802
5 125.00 900.00 122 414 2 0.000 5.373 2000.000 0.802
6 150.00 900.00 185 475 3 0.000 5.373 2000.000 0.802
7 175.00 900.00 295 511 3 0.000 5.373 2000.000 0.802
8 200.00 900.00 390 518 1 0.000 5.373 2000.000 0.802
9 225.00 900.00 402 476 0 0.000 5.373 2000.000 0.802
10 250.00 900.00 371 443 9 0.000 5.373 2000.000 0.802
11 275.00 900.00 332 378 3 0.000 5.373 2000.000 0.802
12 300.00 900.00 295 476 1 0.000 5.373 2000.000 0.802
13 325.00 900.00 302 563 4 0.000 5.373 2000.000 0.802
14 350.00 900.00 358 631 5 0.000 5.373 2000.000 0.802
15 375.00 900.00 397 681 4 0.000 5.373 2000.000 0.802
16 400.00 900.00 421 675 2 0.000 5.373 2000.000 0.802
17 425.00 900.00 289 688 2 0.000 5.373 2000.000 0.802
18 450.00 900.00 200 724 2 0.000 5.373 2000.000 0.802
19 475.00 900.00 111 721 2 0.000 5.373 2000.000 0.802
20 500.00 900.00 107 675 3 0.000 5.373 2000.000 0.802
21 525.00 900.00 119 651 2 0.000 5.373 2000.000 0.802
22 550.00 900.00 107 491 3 0.000 5.373 2000.000 0.802
23 575.00 900.00 116 439 2 0.000 5.373 2000.000 0.802
24 600.00 900.00 94 467 2 0.000 5.373 2000.000 0.802
25 625.00 900.00 126 451 0 0.000 5.373 2000.000 0.802
26 650.00 900.00 238 441 0 0.000 5.373 2000.000 0.802
27 675.00 900.00 312 472 2 0.000 5.373 2000.000 0.802
28 700.00 900.00 381 484 1 0.000 5.373 2000.000 0.802
29 725.00 900.00 379 498 2 0.000 5.373 2000.000 0.802
30 750.00 900.00 390 438 5 0.000 5.373 2000.000 0.802
31 775.00 900.00 319 396 4 0.000 5.373 2000.000 0.802
32 800.00 900.00 325 443 2 0.000 5.373 2000.000 0.802
33 825.00 900.00 319 554 6 0.000 5.373 2000.000 0.802
34 850.00 900.00 335 616 4 0.000 5.373 2000.000 0.802
35 875.00 900.00 413 719 1 0.000 5.373 2000.000 0.802
36 900.00 900.00 402 676 1 0.000 5.373 2000.000 0.802
37 925.00 900.00 304 719 1 0.000 5.373 2000.000 0.802
38 950.00 900.00 202 731 0 0.000 5.373 2000.000 0.802
39 975.00 900.00 117 706 3 0.000 5.373 2000.000 0.802
