# BinNR microsec tot-time (s)  O-Beam AUX Ampl(V) f(Hz) phase(deg) chi(pos)
0 0.00 1200.01 109 144 4.640 10000.000 0.000 0.011
1 3.00 1200.01 207 301 4.640 10000.000 0.000 0.011
2 6.00 1200.01 202 344 4.640 10000.000 0.000 0.011
3 9.00 1200.01 196 283 4.640 10000.000 0.000 0.011
4 12.00 1200.01 227 234 4.640 10000.000 0.000 0.011
5 15.00 1200.01 218 178 4.640 10000.000 0.000 0.011
6 18.00 1200.01 196 136 4.640 10000.000 0.000 0.011
7 21.00 1200.01 197 153 4.640 10000.000 0.000 0.011
8 24.00 1200.01 181 156 4.640 10000.000 0.000 0.011
9 27.00 1200.01 151 109 4.640 10000.000 0.000 0.011
10 30.00 1200.01 156 141 4.640 10000.000 0.000 0.011
11 33.00 1200.01 113 135 4.640 10000.000 0.000 0.011
12 36.00 1200.01 100 152 4.640 10000.000 0.000 0.011
13 39.00 1200.01 104 197 4.640 10000.000 0.000 0.011
14 42.00 1200.01 86 231 4.640 10000.000 0.000 0.011
15 45.00 1200.01 73 299 4.640 10000.000 0.000 0.011
16 48.00 1200.01 86 409 4.640 10000.000 0.000 0.011
17 51.00 1200.01 64 397 4.640 10000.000 0.000 0.011
18 54.00 1200.01 85 502 4.640 10000.000 0.000 0.011
19 57.00 1200.01 72 484 4.640 10000.000 0.000 0.011
20 60.00 1200.01 92 513 4.640 10000.000 0.000 0.011
21 63.00 1200.01 88 448 4.640 10000.000 0.000 0.011
22 66.00 1200.01 113 509 4.640 10000.000 0.000 0.011
23 69.00 1200.01 115 481 4.640 10000.000 0.000 0.011
24 72.00 1200.01 123 512 4.640 10000.000 0.000 0.011
25 75.00 1200.01 149 490 4.640 10000.000 0.000 0.011
26 78.00 1200.01 158 445 4.640 10000.000 0.000 0.011
27 81.00 1200.01 156 427 4.640 10000.000 0.000 0.011
28 84.00 1200.01 178 353 4.640 10000.000 0.000 0.011
29 87.00 1200.01 193 315 4.640 10000.000 0.000 0.011
30 90.00 1200.01 199 263 4.640 10000.000 0.000 0.011
31 93.00 1200.01 176 192 4.640 10000.000 0.000 0.011
32 96.00 1200.01 221 170 4.640 10000.000 0.000 0.011
33 99.00 1200.01 219 137 4.640 10000.000 0.000 0.011
34 102.00 1200.01 196 135 4.640 10000.000 0.000 0.011
35 105.00 1200.01 216 136 4.640 10000.000 0.000 0.011
36 108.00 1200.01 213 151 4.640 10000.000 0.000 0.011
37 111.00 1200.01 218 150 4.640 10000.000 0.000 0.011
38 114.00 1200.01 212 166 4.640 10000.000 0.000 0.011
39 117.00 1200.01 185 157 4.640 10000.000 0.000 0.011
40 120.00 1200.01 190 152 4.640 10000.000 0.000 0.011
41 123.00 1200.01 154 141 4.640 10000.000 0.000 0.011
42 126.00 1200.01 183 117 4.640 10000.000 0.000 0.011
43 129.00 1200.01 137 124 4.640 10000.000 0.000 0.011
44 132.00 1200.01 124 128 4.640 10000.000 0.000 0.011
45 135.00 1200.01 97 155 4.640 10000.000 0.000 0.011
46 138.00 1200.01 107 190 4.640 10000.000 0.000 0.011
47 141.00 1200.01 92 262 4.640 10000.000 0.000 0.011
48 144.00 1200.01 86 325 4.640 10000.000 0.000 0.011
49 147.00 1200.01 89 346 4.640 10000.000 0.000 0.011
50 150.00 1200.01 84 444 4.640 10000.000 0.000 0.011
51 153.00 1200.01 74 446 4.640 10000.000 0.000 0.011
52 156.00 1200.01 76 506 4.640 10000.000 0.000 0.011
53 159.00 1200.01 79 517 4.640 10000.000 0.000 0.011
54 162.00 1200.01 78 493 4.640 10000.000 0.000 0.011
55 165.00 1200.01 85 480 4.640 10000.000 0.000 0.011
56 168.00 1200.01 116 526 4.640 10000.000 0.000 0.011
57 171.00 1200.01 111 506 4.640 10000.000 0.000 0.011
58 174.00 1200.01 145 520 4.640 10000.000 0.000 0.011
59 177.00 1200.01 152 473 4.640 10000.000 0.000 0.011
60 180.00 1200.01 159 417 4.640 10000.000 0.000 0.011
61 183.00 1200.01 199 368 4.640 10000.000 0.000 0.011
62 186.00 1200.01 178 350 4.640 10000.000 0.000 0.011
63 189.00 1200.01 185 261 4.640 10000.000 0.000 0.011
64 192.00 1200.01 209 239 4.640 10000.000 0.000 0.011
65 195.00 1200.01 211 174 4.640 10000.000 0.000 0.011
66 198.00 1200.01 222 158 4.640 10000.000 0.000 0.011
67 201.00 1200.01 211 127 4.640 10000.000 0.000 0.011
68 204.00 1200.01 220 138 4.640 10000.000 0.000 0.011
69 207.00 1200.01 218 135 4.640 10000.000 0.000 0.011
70 210.00 1200.01 226 163 4.640 10000.000 0.000 0.011
71 213.00 1200.01 237 157 4.640 10000.000 0.000 0.011
72 216.00 1200.01 176 147 4.640 10000.000 0.000 0.011
73 219.00 1200.01 199 138 4.640 10000.000 0.000 0.011
74 222.00 1200.01 190 143 4.640 10000.000 0.000 0.011
75 225.00 1200.01 176 128 4.640 10000.000 0.000 0.011
76 228.00 1200.01 180 127 4.640 10000.000 0.000 0.011
77 231.00 1200.01 124 129 4.640 10000.000 0.000 0.011
78 234.00 1200.01 138 142 4.640 10000.000 0.000 0.011
79 237.00 1200.01 98 169 4.640 10000.000 0.000 0.011
80 240.00 1200.01 98 219 4.640 10000.000 0.000 0.011
81 243.00 1200.01 96 303 4.640 10000.000 0.000 0.011
82 246.00 1200.01 91 387 4.640 10000.000 0.000 0.011
83 249.00 1200.01 77 447 4.640 10000.000 0.000 0.011
84 252.00 1200.01 93 430 4.640 10000.000 0.000 0.011
85 255.00 1200.01 128 471 4.640 10000.000 0.000 0.011
86 258.00 1200.01 132 478 4.640 10000.000 0.000 0.011
87 261.00 1200.01 114 490 4.640 10000.000 0.000 0.011
88 264.00 1200.01 137 473 4.640 10000.000 0.000 0.011
89 267.00 1200.01 163 518 4.640 10000.000 0.000 0.011
90 270.00 1200.01 152 485 4.640 10000.000 0.000 0.011
91 273.00 1200.01 145 554 4.640 10000.000 0.000 0.011
92 276.00 1200.01 159 488 4.640 10000.000 0.000 0.011
93 279.00 1200.01 130 429 4.640 10000.000 0.000 0.011
94 282.00 1200.01 136 427 4.640 10000.000 0.000 0.011
95 285.00 1200.01 109 330 4.640 10000.000 0.000 0.011
96 288.00 1200.01 110 325 4.640 10000.000 0.000 0.011
97 291.00 1200.01 97 238 4.640 10000.000 0.000 0.011
98 294.00 1200.01 94 177 4.640 10000.000 0.000 0.011
99 297.00 1200.01 95 155 4.640 10000.000 0.000 0.011
100 300.00 1200.01 95 141 4.640 10000.000 0.000 0.011
101 303.00 1200.01 112 136 4.640 10000.000 0.000 0.011
102 306.00 1200.01 116 153 4.640 10000.000 0.000 0.011
103 309.00 1200.01 117 139 4.640 10000.000 0.000 0.011
104 312.00 1200.01 139 151 4.640 10000.000 0.000 0.011
105 315.00 1200.01 164 145 4.640 10000.000 0.000 0.011
106 318.00 1200.01 179 135 4.640 10000.000 0.000 0.011
107 321.00 1200.01 199 127 4.640 10000.000 0.000 0.011
108 324.00 1200.01 187 126 4.640 10000.000 0.000 0.011
109 327.00 1200.01 226 120 4.640 10000.000 0.000 0.011
110 330.00 1200.01 198 128 4.640 10000.000 0.000 0.011
111 333.00 1200.01 201 133 4.640 10000.000 0.000 0.011
112 336.00 1200.01 217 189 4.640 10000.000 0.000 0.011
113 339.00 1200.01 219 211 4.640 10000.000 0.000 0.011
114 342.00 1200.01 214 272 4.640 10000.000 0.000 0.011
115 345.00 1200.01 207 357 4.640 10000.000 0.000 0.011
116 348.00 1200.01 179 414 4.640 10000.000 0.000 0.011
117 351.00 1200.01 204 442 4.640 10000.000 0.000 0.011
118 354.00 1200.01 184 451 4.640 10000.000 0.000 0.011
119 357.00 1200.01 173 475 4.640 10000.000 0.000 0.011
120 360.00 1200.01 148 504 4.640 10000.000 0.000 0.011
121 363.00 1200.01 139 530 4.640 10000.000 0.000 0.011
122 366.00 1200.01 137 526 4.640 10000.000 0.000 0.011
123 369.00 1200.01 97 483 4.640 10000.000 0.000 0.011
124 372.00 1200.01 105 514 4.640 10000.000 0.000 0.011
125 375.00 1200.01 95 484 4.640 10000.000 0.000 0.011
126 378.00 1200.01 86 470 4.640 10000.000 0.000 0.011
127 381.00 1200.01 84 427 4.640 10000.000 0.000 0.011
128 384.00 1200.01 78 380 4.640 10000.000 0.000 0.011
129 387.00 1200.01 81 344 4.640 10000.000 0.000 0.011
130 390.00 1200.01 92 257 4.640 10000.000 0.000 0.011
131 393.00 1200.01 86 222 4.640 10000.000 0.000 0.011
132 396.00 1200.01 79 177 4.640 10000.000 0.000 0.011
133 399.00 1200.01 95 132 4.640 10000.000 0.000 0.011
134 402.00 1200.01 102 145 4.640 10000.000 0.000 0.011
135 405.00 1200.01 118 118 4.640 10000.000 0.000 0.011
136 408.00 1200.01 131 145 4.640 10000.000 0.000 0.011
137 411.00 1200.01 123 151 4.640 10000.000 0.000 0.011
138 414.00 1200.01 162 137 4.640 10000.000 0.000 0.011
139 417.00 1200.01 187 124 4.640 10000.000 0.000 0.011
140 420.00 1200.01 192 163 4.640 10000.000 0.000 0.011
141 423.00 1200.01 216 208 4.640 10000.000 0.000 0.011
