# BinNR microsec tot-time (s)  O-Beam AUX Ampl(V) f(Hz) phase(deg) chi(pos)
0 0.00 1200.00 131 276 2.300 10000.000 0.000 -0.879
1 3.00 1200.00 241 561 2.300 10000.000 0.000 -0.879
2 6.00 1200.00 278 511 2.300 10000.000 0.000 -0.879
3 9.00 1200.00 257 518 2.300 10000.000 0.000 -0.879
4 12.00 1200.00 270 456 2.300 10000.000 0.000 -0.879
5 15.00 1200.00 258 412 2.300 10000.000 0.000 -0.879
6 18.00 1200.00 267 367 2.300 10000.000 0.000 -0.879
7 21.00 1200.00 241 306 2.300 10000.000 0.000 -0.879
8 24.00 1200.00 242 302 2.300 10000.000 0.000 -0.879
9 27.00 1200.00 236 300 2.300 10000.000 0.000 -0.879
10 30.00 1200.00 215 334 2.300 10000.000 0.000 -0.879
11 33.00 1200.00 223 312 2.300 10000.000 0.000 -0.879
12 36.00 1200.00 207 361 2.300 10000.000 0.000 -0.879
13 39.00 1200.00 205 406 2.300 10000.000 0.000 -0.879
14 42.00 1200.00 165 470 2.300 10000.000 0.000 -0.879
15 45.00 1200.00 166 480 2.300 10000.000 0.000 -0.879
16 48.00 1200.00 179 555 2.300 10000.000 0.000 -0.879
17 51.00 1200.00 171 626 2.300 10000.000 0.000 -0.879
18 54.00 1200.00 173 652 2.300 10000.000 0.000 -0.879
19 57.00 1200.00 172 626 2.300 10000.000 0.000 -0.879
20 60.00 1200.00 195 624 2.300 10000.000 0.000 -0.879
21 63.00 1200.00 180 620 2.300 10000.000 0.000 -0.879
22 66.00 1200.00 190 614 2.300 10000.000 0.000 -0.879
23 69.00 1200.00 188 626 2.300 10000.000 0.000 -0.879
24 72.00 1200.00 209 570 2.300 10000.000 0.000 -0.879
25 75.00 1200.00 232 622 2.300 10000.000 0.000 -0.879
26 78.00 1200.00 254 573 2.300 10000.000 0.000 -0.879
27 81.00 1200.00 242 567 2.300 10000.000 0.000 -0.879
28 84.00 1200.00 243 553 2.300 10000.000 0.000 -0.879
29 87.00 1200.00 239 503 2.300 10000.000 0.000 -0.879
30 90.00 1200.00 243 454 2.300 10000.000 0.000 -0.879
31 93.00 1200.00 243 418 2.300 10000.000 0.000 -0.879
32 96.00 1200.00 241 388 2.300 10000.000 0.000 -0.879
33 99.00 1200.00 257 378 2.300 10000.000 0.000 -0.879
34 102.00 1200.00 238 311 2.300 10000.000 0.000 -0.879
35 105.00 1200.00 242 282 2.300 10000.000 0.000 -0.879
36 108.00 1200.00 263 295 2.300 10000.000 0.000 -0.879
37 111.00 1200.00 276 240 2.300 10000.000 0.000 -0.879
38 114.00 1200.00 262 243 2.300 10000.000 0.000 -0.879
39 117.00 1200.00 230 258 2.300 10000.000 0.000 -0.879
40 120.00 1200.00 244 306 2.300 10000.000 0.000 -0.879
41 123.00 1200.00 221 278 2.300 10000.000 0.000 -0.879
42 126.00 1200.00 222 299 2.300 10000.000 0.000 -0.879
43 129.00 1200.00 218 332 2.300 10000.000 0.000 -0.879
44 132.00 1200.00 201 366 2.300 10000.000 0.000 -0.879
45 135.00 1200.00 206 360 2.300 10000.000 0.000 -0.879
46 138.00 1200.00 178 414 2.300 10000.000 0.000 -0.879
47 141.00 1200.00 162 453 2.300 10000.000 0.000 -0.879
48 144.00 1200.00 179 511 2.300 10000.000 0.000 -0.879
49 147.00 1200.00 166 543 2.300 10000.000 0.000 -0.879
50 150.00 1200.00 199 613 2.300 10000.000 0.000 -0.879
51 153.00 1200.00 167 612 2.300 10000.000 0.000 -0.879
52 156.00 1200.00 199 595 2.300 10000.000 0.000 -0.879
53 159.00 1200.00 200 618 2.300 10000.000 0.000 -0.879
54 162.00 1200.00 193 659 2.300 10000.000 0.000 -0.879
55 165.00 1200.00 188 604 2.300 10000.000 0.000 -0.879
56 168.00 1200.00 223 606 2.300 10000.000 0.000 -0.879
57 171.00 1200.00 207 613 2.300 10000.000 0.000 -0.879
58 174.00 1200.00 187 606 2.300 10000.000 0.000 -0.879
59 177.00 1200.00 222 626 2.300 10000.000 0.000 -0.879
60 180.00 1200.00 236 563 2.300 10000.000 0.000 -0.879
61 183.00 1200.00 239 553 2.300 10000.000 0.000 -0.879
62 186.00 1200.00 241 554 2.300 10000.000 0.000 -0.879
63 189.00 1200.00 278 487 2.300 10000.000 0.000 -0.879
64 192.00 1200.00 273 452 2.300 10000.000 0.000 -0.879
65 195.00 1200.00 276 398 2.300 10000.000 0.000 -0.879
66 198.00 1200.00 240 381 2.300 10000.000 0.000 -0.879
67 201.00 1200.00 230 371 2.300 10000.000 0.000 -0.879
68 204.00 1200.00 256 293 2.300 10000.000 0.000 -0.879
69 207.00 1200.00 240 285 2.300 10000.000 0.000 -0.879
70 210.00 1200.00 277 251 2.300 10000.000 0.000 -0.879
71 213.00 1200.00 238 252 2.300 10000.000 0.000 -0.879
72 216.00 1200.00 250 246 2.300 10000.000 0.000 -0.879
73 219.00 1200.00 249 247 2.300 10000.000 0.000 -0.879
74 222.00 1200.00 239 277 2.300 10000.000 0.000 -0.879
75 225.00 1200.00 223 292 2.300 10000.000 0.000 -0.879
76 228.00 1200.00 236 333 2.300 10000.000 0.000 -0.879
77 231.00 1200.00 198 373 2.300 10000.000 0.000 -0.879
78 234.00 1200.00 207 381 2.300 10000.000 0.000 -0.879
79 237.00 1200.00 200 419 2.300 10000.000 0.000 -0.879
80 240.00 1200.00 191 501 2.300 10000.000 0.000 -0.879
81 243.00 1200.00 220 511 2.300 10000.000 0.000 -0.879
82 246.00 1200.00 189 544 2.300 10000.000 0.000 -0.879
83 249.00 1200.00 218 581 2.300 10000.000 0.000 -0.879
84 252.00 1200.00 204 604 2.300 10000.000 0.000 -0.879
85 255.00 1200.00 218 597 2.300 10000.000 0.000 -0.879
86 258.00 1200.00 227 607 2.300 10000.000 0.000 -0.879
87 261.00 1200.00 245 618 2.300 10000.000 0.000 -0.879
88 264.00 1200.00 232 647 2.300 10000.000 0.000 -0.879
89 267.00 1200.00 234 594 2.300 10000.000 0.000 -0.879
90 270.00 1200.00 235 599 2.300 10000.000 0.000 -0.879
91 273.00 1200.00 208 626 2.300 10000.000 0.000 -0.879
92 276.00 1200.00 238 661 2.300 10000.000 0.000 -0.879
93 279.00 1200.00 242 585 2.300 10000.000 0.000 -0.879
94 282.00 1200.00 216 565 2.300 10000.000 0.000 -0.879
95 285.00 1200.00 204 555 2.300 10000.000 0.000 -0.879
96 288.00 1200.00 210 530 2.300 10000.000 0.000 -0.879
97 291.00 1200.00 211 462 2.300 10000.000 0.000 -0.879
98 294.00 1200.00 221 411 2.300 10000.000 0.000 -0.879
99 297.00 1200.00 213 359 2.300 10000.000 0.000 -0.879
100 300.00 1200.00 240 349 2.300 10000.000 0.000 -0.879
101 303.00 1200.00 187 349 2.300 10000.000 0.000 -0.879
102 306.00 1200.00 217 291 2.300 10000.000 0.000 -0.879
103 309.00 1200.00 232 275 2.300 10000.000 0.000 -0.879
104 312.00 1200.00 237 252 2.300 10000.000 0.000 -0.879
105 315.00 1200.00 217 227 2.300 10000.000 0.000 -0.879
106 318.00 1200.00 252 252 2.300 10000.000 0.000 -0.879
107 321.00 1200.00 249 250 2.300 10000.000 0.000 -0.879
108 324.00 1200.00 240 290 2.300 10000.000 0.000 -0.879
109 327.00 1200.00 232 297 2.300 10000.000 0.000 -0.879
110 330.00 1200.00 292 325 2.300 10000.000 0.000 -0.879
111 333.00 1200.00 246 404 2.300 10000.000 0.000 -0.879
112 336.00 1200.00 267 442 2.300 10000.000 0.000 -0.879
113 339.00 1200.00 217 440 2.300 10000.000 0.000 -0.879
114 342.00 1200.00 254 485 2.300 10000.000 0.000 -0.879
115 345.00 1200.00 254 552 2.300 10000.000 0.000 -0.879
116 348.00 1200.00 260 560 2.300 10000.000 0.000 -0.879
117 351.00 1200.00 243 558 2.300 10000.000 0.000 -0.879
118 354.00 1200.00 232 602 2.300 10000.000 0.000 -0.879
119 357.00 1200.00 225 590 2.300 10000.000 0.000 -0.879
120 360.00 1200.00 265 637 2.300 10000.000 0.000 -0.879
121 363.00 1200.00 229 600 2.300 10000.000 0.000 -0.879
122 366.00 1200.00 221 591 2.300 10000.000 0.000 -0.879
123 369.00 1200.00 205 584 2.300 10000.000 0.000 -0.879
124 372.00 1200.00 194 591 2.300 10000.000 0.000 -0.879
125 375.00 1200.00 198 604 2.300 10000.000 0.000 -0.879
126 378.00 1200.00 180 561 2.300 10000.000 0.000 -0.879
127 381.00 1200.00 165 591 2.300 10000.000 0.000 -0.879
128 384.00 1200.00 188 571 2.300 10000.000 0.000 -0.879
129 387.00 1200.00 171 481 2.300 10000.000 0.000 -0.879
130 390.00 1200.00 182 526 2.300 10000.000 0.000 -0.879
131 393.00 1200.00 203 413 2.300 10000.000 0.000 -0.879
132 396.00 1200.00 175 415 2.300 10000.000 0.000 -0.879
133 399.00 1200.00 214 350 2.300 10000.000 0.000 -0.879
134 402.00 1200.00 217 328 2.300 10000.000 0.000 -0.879
135 405.00 1200.00 211 279 2.300 10000.000 0.000 -0.879
136 408.00 1200.00 209 284 2.300 10000.000 0.000 -0.879
137 411.00 1200.00 227 299 2.300 10000.000 0.000 -0.879
138 414.00 1200.00 257 329 2.300 10000.000 0.000 -0.879
139 417.00 1200.00 272 319 2.300 10000.000 0.000 -0.879
140 420.00 1200.00 266 378 2.300 10000.000 0.000 -0.879
141 423.00 1200.00 220 377 2.300 10000.000 0.000 -0.879
