# BinNR microsec tot-time (s)  O-Beam AUX Ampl(V) f(Hz) phase(deg) chi(pos)
0 0.00 1200.00 125 287 1.270 10000.000 0.000 -0.571
1 3.00 1200.00 277 556 1.270 10000.000 0.000 -0.571
2 6.00 1200.00 235 546 1.270 10000.000 0.000 -0.571
3 9.00 1200.00 231 523 1.270 10000.000 0.000 -0.571
4 12.00 1200.00 246 560 1.270 10000.000 0.000 -0.571
5 15.00 1200.00 254 501 1.270 10000.000 0.000 -0.571
6 18.00 1200.00 240 491 1.270 10000.000 0.000 -0.571
7 21.00 1200.00 233 470 1.270 10000.000 0.000 -0.571
8 24.00 1200.00 283 455 1.270 10000.000 0.000 -0.571
9 27.00 1200.00 227 414 1.270 10000.000 0.000 -0.571
10 30.00 1200.00 235 469 1.270 10000.000 0.000 -0.571
11 33.00 1200.00 228 507 1.270 10000.000 0.000 -0.571
12 36.00 1200.00 251 504 1.270 10000.000 0.000 -0.571
13 39.00 1200.00 220 510 1.270 10000.000 0.000 -0.571
14 42.00 1200.00 217 537 1.270 10000.000 0.000 -0.571
15 45.00 1200.00 224 584 1.270 10000.000 0.000 -0.571
16 48.00 1200.00 239 573 1.270 10000.000 0.000 -0.571
17 51.00 1200.00 205 618 1.270 10000.000 0.000 -0.571
18 54.00 1200.00 233 631 1.270 10000.000 0.000 -0.571
19 57.00 1200.00 210 697 1.270 10000.000 0.000 -0.571
20 60.00 1200.00 272 651 1.270 10000.000 0.000 -0.571
21 63.00 1200.00 223 622 1.270 10000.000 0.000 -0.571
22 66.00 1200.00 236 640 1.270 10000.000 0.000 -0.571
23 69.00 1200.00 251 644 1.270 10000.000 0.000 -0.571
24 72.00 1200.00 242 661 1.270 10000.000 0.000 -0.571
25 75.00 1200.00 231 647 1.270 10000.000 0.000 -0.571
26 78.00 1200.00 255 588 1.270 10000.000 0.000 -0.571
27 81.00 1200.00 239 587 1.270 10000.000 0.000 -0.571
28 84.00 1200.00 271 609 1.270 10000.000 0.000 -0.571
29 87.00 1200.00 281 550 1.270 10000.000 0.000 -0.571
30 90.00 1200.00 257 513 1.270 10000.000 0.000 -0.571
31 93.00 1200.00 265 509 1.270 10000.000 0.000 -0.571
32 96.00 1200.00 255 454 1.270 10000.000 0.000 -0.571
33 99.00 1200.00 261 478 1.270 10000.000 0.000 -0.571
34 102.00 1200.00 267 476 1.270 10000.000 0.000 -0.571
35 105.00 1200.00 268 460 1.270 10000.000 0.000 -0.571
36 108.00 1200.00 283 455 1.270 10000.000 0.000 -0.571
37 111.00 1200.00 259 397 1.270 10000.000 0.000 -0.571
38 114.00 1200.00 272 426 1.270 10000.000 0.000 -0.571
39 117.00 1200.00 288 379 1.270 10000.000 0.000 -0.571
40 120.00 1200.00 240 406 1.270 10000.000 0.000 -0.571
41 123.00 1200.00 234 398 1.270 10000.000 0.000 -0.571
42 126.00 1200.00 233 486 1.270 10000.000 0.000 -0.571
43 129.00 1200.00 226 470 1.270 10000.000 0.000 -0.571
44 132.00 1200.00 237 482 1.270 10000.000 0.000 -0.571
45 135.00 1200.00 251 482 1.270 10000.000 0.000 -0.571
46 138.00 1200.00 234 540 1.270 10000.000 0.000 -0.571
47 141.00 1200.00 231 518 1.270 10000.000 0.000 -0.571
48 144.00 1200.00 209 576 1.270 10000.000 0.000 -0.571
49 147.00 1200.00 231 614 1.270 10000.000 0.000 -0.571
50 150.00 1200.00 237 609 1.270 10000.000 0.000 -0.571
51 153.00 1200.00 223 594 1.270 10000.000 0.000 -0.571
52 156.00 1200.00 219 613 1.270 10000.000 0.000 -0.571
53 159.00 1200.00 218 624 1.270 10000.000 0.000 -0.571
54 162.00 1200.00 219 609 1.270 10000.000 0.000 -0.571
55 165.00 1200.00 244 647 1.270 10000.000 0.000 -0.571
56 168.00 1200.00 220 617 1.270 10000.000 0.000 -0.571
57 171.00 1200.00 228 641 1.270 10000.000 0.000 -0.571
58 174.00 1200.00 250 630 1.270 10000.000 0.000 -0.571
59 177.00 1200.00 248 597 1.270 10000.000 0.000 -0.571
60 180.00 1200.00 247 607 1.270 10000.000 0.000 -0.571
61 183.00 1200.00 255 613 1.270 10000.000 0.000 -0.571
62 186.00 1200.00 259 595 1.270 10000.000 0.000 -0.571
63 189.00 1200.00 269 560 1.270 10000.000 0.000 -0.571
64 192.00 1200.00 239 594 1.270 10000.000 0.000 -0.571
65 195.00 1200.00 278 479 1.270 10000.000 0.000 -0.571
66 198.00 1200.00 250 499 1.270 10000.000 0.000 -0.571
67 201.00 1200.00 250 420 1.270 10000.000 0.000 -0.571
68 204.00 1200.00 255 454 1.270 10000.000 0.000 -0.571
69 207.00 1200.00 221 445 1.270 10000.000 0.000 -0.571
70 210.00 1200.00 232 460 1.270 10000.000 0.000 -0.571
71 213.00 1200.00 236 418 1.270 10000.000 0.000 -0.571
72 216.00 1200.00 255 434 1.270 10000.000 0.000 -0.571
73 219.00 1200.00 244 428 1.270 10000.000 0.000 -0.571
74 222.00 1200.00 246 422 1.270 10000.000 0.000 -0.571
75 225.00 1200.00 244 433 1.270 10000.000 0.000 -0.571
76 228.00 1200.00 257 452 1.270 10000.000 0.000 -0.571
77 231.00 1200.00 253 470 1.270 10000.000 0.000 -0.571
78 234.00 1200.00 220 478 1.270 10000.000 0.000 -0.571
79 237.00 1200.00 232 502 1.270 10000.000 0.000 -0.571
80 240.00 1200.00 218 553 1.270 10000.000 0.000 -0.571
81 243.00 1200.00 233 581 1.270 10000.000 0.000 -0.571
82 246.00 1200.00 237 583 1.270 10000.000 0.000 -0.571
83 249.00 1200.00 220 577 1.270 10000.000 0.000 -0.571
84 252.00 1200.00 215 587 1.270 10000.000 0.000 -0.571
85 255.00 1200.00 248 620 1.270 10000.000 0.000 -0.571
86 258.00 1200.00 245 616 1.270 10000.000 0.000 -0.571
87 261.00 1200.00 261 575 1.270 10000.000 0.000 -0.571
88 264.00 1200.00 246 633 1.270 10000.000 0.000 -0.571
89 267.00 1200.00 242 600 1.270 10000.000 0.000 -0.571
90 270.00 1200.00 262 649 1.270 10000.000 0.000 -0.571
91 273.00 1200.00 255 594 1.270 10000.000 0.000 -0.571
92 276.00 1200.00 259 588 1.270 10000.000 0.000 -0.571
93 279.00 1200.00 219 632 1.270 10000.000 0.000 -0.571
94 282.00 1200.00 242 604 1.270 10000.000 0.000 -0.571
95 285.00 1200.00 236 560 1.270 10000.000 0.000 -0.571
96 288.00 1200.00 232 529 1.270 10000.000 0.000 -0.571
97 291.00 1200.00 231 531 1.270 10000.000 0.000 -0.571
98 294.00 1200.00 233 523 1.270 10000.000 0.000 -0.571
99 297.00 1200.00 229 518 1.270 10000.000 0.000 -0.571
100 300.00 1200.00 231 508 1.270 10000.000 0.000 -0.571
101 303.00 1200.00 239 430 1.270 10000.000 0.000 -0.571
102 306.00 1200.00 237 429 1.270 10000.000 0.000 -0.571
103 309.00 1200.00 227 440 1.270 10000.000 0.000 -0.571
104 312.00 1200.00 244 395 1.270 10000.000 0.000 -0.571
105 315.00 1200.00 222 416 1.270 10000.000 0.000 -0.571
106 318.00 1200.00 249 398 1.270 10000.000 0.000 -0.571
107 321.00 1200.00 272 439 1.270 10000.000 0.000 -0.571
108 324.00 1200.00 257 449 1.270 10000.000 0.000 -0.571
109 327.00 1200.00 268 461 1.270 10000.000 0.000 -0.571
110 330.00 1200.00 245 445 1.270 10000.000 0.000 -0.571
111 333.00 1200.00 234 470 1.270 10000.000 0.000 -0.571
112 336.00 1200.00 266 529 1.270 10000.000 0.000 -0.571
113 339.00 1200.00 258 489 1.270 10000.000 0.000 -0.571
114 342.00 1200.00 293 546 1.270 10000.000 0.000 -0.571
115 345.00 1200.00 260 558 1.270 10000.000 0.000 -0.571
116 348.00 1200.00 248 595 1.270 10000.000 0.000 -0.571
117 351.00 1200.00 239 628 1.270 10000.000 0.000 -0.571
118 354.00 1200.00 266 601 1.270 10000.000 0.000 -0.571
119 357.00 1200.00 255 600 1.270 10000.000 0.000 -0.571
120 360.00 1200.00 259 656 1.270 10000.000 0.000 -0.571
121 363.00 1200.00 248 630 1.270 10000.000 0.000 -0.571
122 366.00 1200.00 257 697 1.270 10000.000 0.000 -0.571
123 369.00 1200.00 250 613 1.270 10000.000 0.000 -0.571
124 372.00 1200.00 218 628 1.270 10000.000 0.000 -0.571
125 375.00 1200.00 244 648 1.270 10000.000 0.000 -0.571
126 378.00 1200.00 247 618 1.270 10000.000 0.000 -0.571
127 381.00 1200.00 200 592 1.270 10000.000 0.000 -0.571
128 384.00 1200.00 208 569 1.270 10000.000 0.000 -0.571
129 387.00 1200.00 212 561 1.270 10000.000 0.000 -0.571
130 390.00 1200.00 247 533 1.270 10000.000 0.000 -0.571
131 393.00 1200.00 237 493 1.270 10000.000 0.000 -0.571
132 396.00 1200.00 234 509 1.270 10000.000 0.000 -0.571
133 399.00 1200.00 225 464 1.270 10000.000 0.000 -0.571
134 402.00 1200.00 244 443 1.270 10000.000 0.000 -0.571
135 405.00 1200.00 219 464 1.270 10000.000 0.000 -0.571
136 408.00 1200.00 258 435 1.270 10000.000 0.000 -0.571
137 411.00 1200.00 224 429 1.270 10000.000 0.000 -0.571
138 414.00 1200.00 234 425 1.270 10000.000 0.000 -0.571
139 417.00 1200.00 246 486 1.270 10000.000 0.000 -0.571
140 420.00 1200.00 265 521 1.270 10000.000 0.000 -0.571
141 423.00 1200.00 233 519 1.270 10000.000 0.000 -0.571
