# BinNR microsec tot-time (s)  O-Beam AUX Ampl(V) f(Hz) phase(deg) chi(pos)
0 0.00 1200.01 118 305 0.630 10000.000 0.000 -0.483
1 3.00 1200.01 240 584 0.630 10000.000 0.000 -0.483
2 6.00 1200.01 234 610 0.630 10000.000 0.000 -0.483
3 9.00 1200.01 268 574 0.630 10000.000 0.000 -0.483
4 12.00 1200.01 258 597 0.630 10000.000 0.000 -0.483
5 15.00 1200.01 284 574 0.630 10000.000 0.000 -0.483
6 18.00 1200.01 263 564 0.630 10000.000 0.000 -0.483
7 21.00 1200.01 236 565 0.630 10000.000 0.000 -0.483
8 24.00 1200.01 283 585 0.630 10000.000 0.000 -0.483
9 27.00 1200.01 248 534 0.630 10000.000 0.000 -0.483
10 30.00 1200.01 249 565 0.630 10000.000 0.000 -0.483
11 33.00 1200.01 254 547 0.630 10000.000 0.000 -0.483
12 36.00 1200.01 239 513 0.630 10000.000 0.000 -0.483
13 39.00 1200.01 255 516 0.630 10000.000 0.000 -0.483
14 42.00 1200.01 229 582 0.630 10000.000 0.000 -0.483
15 45.00 1200.01 233 574 0.630 10000.000 0.000 -0.483
16 48.00 1200.01 242 559 0.630 10000.000 0.000 -0.483
17 51.00 1200.01 230 558 0.630 10000.000 0.000 -0.483
18 54.00 1200.01 265 636 0.630 10000.000 0.000 -0.483
19 57.00 1200.01 249 565 0.630 10000.000 0.000 -0.483
20 60.00 1200.01 240 612 0.630 10000.000 0.000 -0.483
21 63.00 1200.01 259 626 0.630 10000.000 0.000 -0.483
22 66.00 1200.01 256 581 0.630 10000.000 0.000 -0.483
23 69.00 1200.01 239 634 0.630 10000.000 0.000 -0.483
24 72.00 1200.01 262 632 0.630 10000.000 0.000 -0.483
25 75.00 1200.01 249 572 0.630 10000.000 0.000 -0.483
26 78.00 1200.01 249 667 0.630 10000.000 0.000 -0.483
27 81.00 1200.01 262 585 0.630 10000.000 0.000 -0.483
28 84.00 1200.01 300 568 0.630 10000.000 0.000 -0.483
29 87.00 1200.01 235 580 0.630 10000.000 0.000 -0.483
30 90.00 1200.01 275 544 0.630 10000.000 0.000 -0.483
31 93.00 1200.01 244 557 0.630 10000.000 0.000 -0.483
32 96.00 1200.01 261 570 0.630 10000.000 0.000 -0.483
33 99.00 1200.01 246 510 0.630 10000.000 0.000 -0.483
34 102.00 1200.01 258 504 0.630 10000.000 0.000 -0.483
35 105.00 1200.01 270 509 0.630 10000.000 0.000 -0.483
36 108.00 1200.01 270 535 0.630 10000.000 0.000 -0.483
37 111.00 1200.01 243 497 0.630 10000.000 0.000 -0.483
38 114.00 1200.01 257 533 0.630 10000.000 0.000 -0.483
39 117.00 1200.01 265 529 0.630 10000.000 0.000 -0.483
40 120.00 1200.01 245 511 0.630 10000.000 0.000 -0.483
41 123.00 1200.01 251 499 0.630 10000.000 0.000 -0.483
42 126.00 1200.01 246 548 0.630 10000.000 0.000 -0.483
43 129.00 1200.01 237 481 0.630 10000.000 0.000 -0.483
44 132.00 1200.01 261 553 0.630 10000.000 0.000 -0.483
45 135.00 1200.01 215 557 0.630 10000.000 0.000 -0.483
46 138.00 1200.01 240 571 0.630 10000.000 0.000 -0.483
47 141.00 1200.01 236 581 0.630 10000.000 0.000 -0.483
48 144.00 1200.01 238 608 0.630 10000.000 0.000 -0.483
49 147.00 1200.01 213 585 0.630 10000.000 0.000 -0.483
50 150.00 1200.01 250 560 0.630 10000.000 0.000 -0.483
51 153.00 1200.01 259 589 0.630 10000.000 0.000 -0.483
52 156.00 1200.01 264 633 0.630 10000.000 0.000 -0.483
53 159.00 1200.01 274 601 0.630 10000.000 0.000 -0.483
54 162.00 1200.01 243 613 0.630 10000.000 0.000 -0.483
55 165.00 1200.01 266 705 0.630 10000.000 0.000 -0.483
56 168.00 1200.01 263 594 0.630 10000.000 0.000 -0.483
57 171.00 1200.01 248 651 0.630 10000.000 0.000 -0.483
58 174.00 1200.01 251 658 0.630 10000.000 0.000 -0.483
59 177.00 1200.01 255 605 0.630 10000.000 0.000 -0.483
60 180.00 1200.01 258 612 0.630 10000.000 0.000 -0.483
61 183.00 1200.01 254 600 0.630 10000.000 0.000 -0.483
62 186.00 1200.01 247 582 0.630 10000.000 0.000 -0.483
63 189.00 1200.01 232 579 0.630 10000.000 0.000 -0.483
64 192.00 1200.01 273 588 0.630 10000.000 0.000 -0.483
65 195.00 1200.01 235 580 0.630 10000.000 0.000 -0.483
66 198.00 1200.01 256 534 0.630 10000.000 0.000 -0.483
67 201.00 1200.01 254 550 0.630 10000.000 0.000 -0.483
68 204.00 1200.01 232 555 0.630 10000.000 0.000 -0.483
69 207.00 1200.01 267 483 0.630 10000.000 0.000 -0.483
70 210.00 1200.01 267 534 0.630 10000.000 0.000 -0.483
71 213.00 1200.01 214 535 0.630 10000.000 0.000 -0.483
72 216.00 1200.01 275 497 0.630 10000.000 0.000 -0.483
73 219.00 1200.01 273 496 0.630 10000.000 0.000 -0.483
74 222.00 1200.01 265 507 0.630 10000.000 0.000 -0.483
75 225.00 1200.01 267 548 0.630 10000.000 0.000 -0.483
76 228.00 1200.01 240 537 0.630 10000.000 0.000 -0.483
77 231.00 1200.01 236 564 0.630 10000.000 0.000 -0.483
78 234.00 1200.01 273 587 0.630 10000.000 0.000 -0.483
79 237.00 1200.01 241 557 0.630 10000.000 0.000 -0.483
80 240.00 1200.01 252 587 0.630 10000.000 0.000 -0.483
81 243.00 1200.01 250 559 0.630 10000.000 0.000 -0.483
82 246.00 1200.01 257 593 0.630 10000.000 0.000 -0.483
83 249.00 1200.01 234 532 0.630 10000.000 0.000 -0.483
84 252.00 1200.01 248 596 0.630 10000.000 0.000 -0.483
85 255.00 1200.01 231 657 0.630 10000.000 0.000 -0.483
86 258.00 1200.01 243 579 0.630 10000.000 0.000 -0.483
87 261.00 1200.01 260 640 0.630 10000.000 0.000 -0.483
88 264.00 1200.01 280 632 0.630 10000.000 0.000 -0.483
89 267.00 1200.01 248 619 0.630 10000.000 0.000 -0.483
90 270.00 1200.01 258 656 0.630 10000.000 0.000 -0.483
91 273.00 1200.01 247 627 0.630 10000.000 0.000 -0.483
92 276.00 1200.01 268 671 0.630 10000.000 0.000 -0.483
93 279.00 1200.01 277 596 0.630 10000.000 0.000 -0.483
94 282.00 1200.01 246 618 0.630 10000.000 0.000 -0.483
95 285.00 1200.01 249 550 0.630 10000.000 0.000 -0.483
96 288.00 1200.01 213 538 0.630 10000.000 0.000 -0.483
97 291.00 1200.01 253 568 0.630 10000.000 0.000 -0.483
98 294.00 1200.01 259 606 0.630 10000.000 0.000 -0.483
99 297.00 1200.01 239 560 0.630 10000.000 0.000 -0.483
100 300.00 1200.01 226 586 0.630 10000.000 0.000 -0.483
101 303.00 1200.01 251 525 0.630 10000.000 0.000 -0.483
102 306.00 1200.01 255 544 0.630 10000.000 0.000 -0.483
103 309.00 1200.01 246 528 0.630 10000.000 0.000 -0.483
104 312.00 1200.01 239 528 0.630 10000.000 0.000 -0.483
105 315.00 1200.01 241 487 0.630 10000.000 0.000 -0.483
106 318.00 1200.01 252 532 0.630 10000.000 0.000 -0.483
107 321.00 1200.01 268 506 0.630 10000.000 0.000 -0.483
108 324.00 1200.01 277 548 0.630 10000.000 0.000 -0.483
109 327.00 1200.01 267 573 0.630 10000.000 0.000 -0.483
110 330.00 1200.01 247 512 0.630 10000.000 0.000 -0.483
111 333.00 1200.01 266 558 0.630 10000.000 0.000 -0.483
112 336.00 1200.01 255 591 0.630 10000.000 0.000 -0.483
113 339.00 1200.01 265 616 0.630 10000.000 0.000 -0.483
114 342.00 1200.01 248 545 0.630 10000.000 0.000 -0.483
115 345.00 1200.01 287 541 0.630 10000.000 0.000 -0.483
116 348.00 1200.01 235 568 0.630 10000.000 0.000 -0.483
117 351.00 1200.01 234 623 0.630 10000.000 0.000 -0.483
118 354.00 1200.01 266 585 0.630 10000.000 0.000 -0.483
119 357.00 1200.01 273 624 0.630 10000.000 0.000 -0.483
120 360.00 1200.01 253 647 0.630 10000.000 0.000 -0.483
121 363.00 1200.01 267 616 0.630 10000.000 0.000 -0.483
122 366.00 1200.01 247 652 0.630 10000.000 0.000 -0.483
123 369.00 1200.01 286 584 0.630 10000.000 0.000 -0.483
124 372.00 1200.01 233 638 0.630 10000.000 0.000 -0.483
125 375.00 1200.01 243 566 0.630 10000.000 0.000 -0.483
126 378.00 1200.01 232 583 0.630 10000.000 0.000 -0.483
127 381.00 1200.01 240 627 0.630 10000.000 0.000 -0.483
128 384.00 1200.01 257 565 0.630 10000.000 0.000 -0.483
129 387.00 1200.01 229 603 0.630 10000.000 0.000 -0.483
130 390.00 1200.01 239 586 0.630 10000.000 0.000 -0.483
131 393.00 1200.01 236 561 0.630 10000.000 0.000 -0.483
132 396.00 1200.01 256 525 0.630 10000.000 0.000 -0.483
133 399.00 1200.01 235 552 0.630 10000.000 0.000 -0.483
134 402.00 1200.01 232 523 0.630 10000.000 0.000 -0.483
135 405.00 1200.01 266 510 0.630 10000.000 0.000 -0.483
136 408.00 1200.01 247 568 0.630 10000.000 0.000 -0.483
137 411.00 1200.01 261 500 0.630 10000.000 0.000 -0.483
138 414.00 1200.01 235 541 0.630 10000.000 0.000 -0.483
139 417.00 1200.01 243 497 0.630 10000.000 0.000 -0.483
140 420.00 1200.01 258 561 0.630 10000.000 0.000 -0.483
141 423.00 1200.01 274 550 0.630 10000.000 0.000 -0.483
