# BinNR microsec tot-time (s)  O-Beam AUX Ampl(V) f(Hz) phase(deg) chi(pos)
0 0.00 1200.01 121 315 0.306 10000.000 0.000 -0.483
1 3.00 1200.01 237 562 0.306 10000.000 0.000 -0.483
2 6.00 1200.01 265 583 0.306 10000.000 0.000 -0.483
3 9.00 1200.01 262 582 0.306 10000.000 0.000 -0.483
4 12.00 1200.01 263 560 0.306 10000.000 0.000 -0.483
5 15.00 1200.01 242 591 0.306 10000.000 0.000 -0.483
6 18.00 1200.01 253 569 0.306 10000.000 0.000 -0.483
7 21.00 1200.01 260 559 0.306 10000.000 0.000 -0.483
8 24.00 1200.01 240 569 0.306 10000.000 0.000 -0.483
9 27.00 1200.01 261 585 0.306 10000.000 0.000 -0.483
10 30.00 1200.01 237 620 0.306 10000.000 0.000 -0.483
11 33.00 1200.01 252 608 0.306 10000.000 0.000 -0.483
12 36.00 1200.01 239 577 0.306 10000.000 0.000 -0.483
13 39.00 1200.01 226 549 0.306 10000.000 0.000 -0.483
14 42.00 1200.01 262 576 0.306 10000.000 0.000 -0.483
15 45.00 1200.01 242 574 0.306 10000.000 0.000 -0.483
16 48.00 1200.01 248 642 0.306 10000.000 0.000 -0.483
17 51.00 1200.01 233 577 0.306 10000.000 0.000 -0.483
18 54.00 1200.01 269 689 0.306 10000.000 0.000 -0.483
19 57.00 1200.01 235 603 0.306 10000.000 0.000 -0.483
20 60.00 1200.01 228 635 0.306 10000.000 0.000 -0.483
21 63.00 1200.01 232 602 0.306 10000.000 0.000 -0.483
22 66.00 1200.01 252 682 0.306 10000.000 0.000 -0.483
23 69.00 1200.01 249 625 0.306 10000.000 0.000 -0.483
24 72.00 1200.01 227 614 0.306 10000.000 0.000 -0.483
25 75.00 1200.01 242 601 0.306 10000.000 0.000 -0.483
26 78.00 1200.01 260 612 0.306 10000.000 0.000 -0.483
27 81.00 1200.01 225 576 0.306 10000.000 0.000 -0.483
28 84.00 1200.01 294 607 0.306 10000.000 0.000 -0.483
29 87.00 1200.01 260 620 0.306 10000.000 0.000 -0.483
30 90.00 1200.01 263 589 0.306 10000.000 0.000 -0.483
31 93.00 1200.01 253 565 0.306 10000.000 0.000 -0.483
32 96.00 1200.01 241 592 0.306 10000.000 0.000 -0.483
33 99.00 1200.01 252 574 0.306 10000.000 0.000 -0.483
34 102.00 1200.01 249 606 0.306 10000.000 0.000 -0.483
35 105.00 1200.01 260 582 0.306 10000.000 0.000 -0.483
36 108.00 1200.01 263 540 0.306 10000.000 0.000 -0.483
37 111.00 1200.01 227 563 0.306 10000.000 0.000 -0.483
38 114.00 1200.01 260 562 0.306 10000.000 0.000 -0.483
39 117.00 1200.01 253 563 0.306 10000.000 0.000 -0.483
40 120.00 1200.01 273 551 0.306 10000.000 0.000 -0.483
41 123.00 1200.01 269 524 0.306 10000.000 0.000 -0.483
42 126.00 1200.01 265 588 0.306 10000.000 0.000 -0.483
43 129.00 1200.01 256 601 0.306 10000.000 0.000 -0.483
44 132.00 1200.01 254 649 0.306 10000.000 0.000 -0.483
45 135.00 1200.01 241 564 0.306 10000.000 0.000 -0.483
46 138.00 1200.01 253 633 0.306 10000.000 0.000 -0.483
47 141.00 1200.01 258 595 0.306 10000.000 0.000 -0.483
48 144.00 1200.01 253 587 0.306 10000.000 0.000 -0.483
49 147.00 1200.01 219 623 0.306 10000.000 0.000 -0.483
50 150.00 1200.01 244 609 0.306 10000.000 0.000 -0.483
51 153.00 1200.01 242 613 0.306 10000.000 0.000 -0.483
52 156.00 1200.01 239 600 0.306 10000.000 0.000 -0.483
53 159.00 1200.01 244 603 0.306 10000.000 0.000 -0.483
54 162.00 1200.01 253 625 0.306 10000.000 0.000 -0.483
55 165.00 1200.01 227 627 0.306 10000.000 0.000 -0.483
56 168.00 1200.01 257 619 0.306 10000.000 0.000 -0.483
57 171.00 1200.01 245 616 0.306 10000.000 0.000 -0.483
58 174.00 1200.01 258 608 0.306 10000.000 0.000 -0.483
59 177.00 1200.01 270 565 0.306 10000.000 0.000 -0.483
60 180.00 1200.01 250 585 0.306 10000.000 0.000 -0.483
61 183.00 1200.01 267 628 0.306 10000.000 0.000 -0.483
62 186.00 1200.01 240 610 0.306 10000.000 0.000 -0.483
63 189.00 1200.01 244 609 0.306 10000.000 0.000 -0.483
64 192.00 1200.01 269 582 0.306 10000.000 0.000 -0.483
65 195.00 1200.01 260 641 0.306 10000.000 0.000 -0.483
66 198.00 1200.01 287 547 0.306 10000.000 0.000 -0.483
67 201.00 1200.01 240 564 0.306 10000.000 0.000 -0.483
68 204.00 1200.01 253 582 0.306 10000.000 0.000 -0.483
69 207.00 1200.01 249 571 0.306 10000.000 0.000 -0.483
70 210.00 1200.01 262 579 0.306 10000.000 0.000 -0.483
71 213.00 1200.01 255 522 0.306 10000.000 0.000 -0.483
72 216.00 1200.01 253 575 0.306 10000.000 0.000 -0.483
73 219.00 1200.01 252 595 0.306 10000.000 0.000 -0.483
74 222.00 1200.01 279 539 0.306 10000.000 0.000 -0.483
75 225.00 1200.01 265 569 0.306 10000.000 0.000 -0.483
76 228.00 1200.01 280 608 0.306 10000.000 0.000 -0.483
77 231.00 1200.01 262 585 0.306 10000.000 0.000 -0.483
78 234.00 1200.01 253 582 0.306 10000.000 0.000 -0.483
79 237.00 1200.01 237 553 0.306 10000.000 0.000 -0.483
80 240.00 1200.01 272 624 0.306 10000.000 0.000 -0.483
81 243.00 1200.01 237 587 0.306 10000.000 0.000 -0.483
82 246.00 1200.01 258 622 0.306 10000.000 0.000 -0.483
83 249.00 1200.01 231 617 0.306 10000.000 0.000 -0.483
84 252.00 1200.01 232 613 0.306 10000.000 0.000 -0.483
85 255.00 1200.01 248 603 0.306 10000.000 0.000 -0.483
86 258.00 1200.01 256 671 0.306 10000.000 0.000 -0.483
87 261.00 1200.01 242 595 0.306 10000.000 0.000 -0.483
88 264.00 1200.01 239 588 0.306 10000.000 0.000 -0.483
89 267.00 1200.01 263 576 0.306 10000.000 0.000 -0.483
90 270.00 1200.01 258 636 0.306 10000.000 0.000 -0.483
91 273.00 1200.01 290 600 0.306 10000.000 0.000 -0.483
92 276.00 1200.01 251 631 0.306 10000.000 0.000 -0.483
93 279.00 1200.01 258 620 0.306 10000.000 0.000 -0.483
94 282.00 1200.01 257 647 0.306 10000.000 0.000 -0.483
95 285.00 1200.01 251 560 0.306 10000.000 0.000 -0.483
96 288.00 1200.01 240 597 0.306 10000.000 0.000 -0.483
97 291.00 1200.01 246 578 0.306 10000.000 0.000 -0.483
98 294.00 1200.01 261 599 0.306 10000.000 0.000 -0.483
99 297.00 1200.01 228 524 0.306 10000.000 0.000 -0.483
100 300.00 1200.01 256 624 0.306 10000.000 0.000 -0.483
101 303.00 1200.01 254 566 0.306 10000.000 0.000 -0.483
102 306.00 1200.01 254 554 0.306 10000.000 0.000 -0.483
103 309.00 1200.01 250 545 0.306 10000.000 0.000 -0.483
104 312.00 1200.01 268 542 0.306 10000.000 0.000 -0.483
105 315.00 1200.01 248 610 0.306 10000.000 0.000 -0.483
106 318.00 1200.01 257 598 0.306 10000.000 0.000 -0.483
107 321.00 1200.01 248 573 0.306 10000.000 0.000 -0.483
108 324.00 1200.01 266 561 0.306 10000.000 0.000 -0.483
109 327.00 1200.01 229 585 0.306 10000.000 0.000 -0.483
110 330.00 1200.01 263 559 0.306 10000.000 0.000 -0.483
111 333.00 1200.01 226 586 0.306 10000.000 0.000 -0.483
112 336.00 1200.01 257 621 0.306 10000.000 0.000 -0.483
113 339.00 1200.01 231 590 0.306 10000.000 0.000 -0.483
114 342.00 1200.01 269 620 0.306 10000.000 0.000 -0.483
115 345.00 1200.01 245 587 0.306 10000.000 0.000 -0.483
116 348.00 1200.01 253 644 0.306 10000.000 0.000 -0.483
117 351.00 1200.01 239 622 0.306 10000.000 0.000 -0.483
118 354.00 1200.01 252 598 0.306 10000.000 0.000 -0.483
119 357.00 1200.01 228 595 0.306 10000.000 0.000 -0.483
120 360.00 1200.01 264 671 0.306 10000.000 0.000 -0.483
121 363.00 1200.01 238 621 0.306 10000.000 0.000 -0.483
122 366.00 1200.01 266 606 0.306 10000.000 0.000 -0.483
123 369.00 1200.01 266 599 0.306 10000.000 0.000 -0.483
124 372.00 1200.01 248 643 0.306 10000.000 0.000 -0.483
125 375.00 1200.01 260 602 0.306 10000.000 0.000 -0.483
126 378.00 1200.01 244 591 0.306 10000.000 0.000 -0.483
127 381.00 1200.01 242 595 0.306 10000.000 0.000 -0.483
128 384.00 1200.01 250 615 0.306 10000.000 0.000 -0.483
129 387.00 1200.01 268 641 0.306 10000.000 0.000 -0.483
130 390.00 1200.01 267 616 0.306 10000.000 0.000 -0.483
131 393.00 1200.01 253 607 0.306 10000.000 0.000 -0.483
132 396.00 1200.01 256 589 0.306 10000.000 0.000 -0.483
133 399.00 1200.01 243 561 0.306 10000.000 0.000 -0.483
134 402.00 1200.01 242 582 0.306 10000.000 0.000 -0.483
135 405.00 1200.01 229 581 0.306 10000.000 0.000 -0.483
136 408.00 1200.01 257 571 0.306 10000.000 0.000 -0.483
137 411.00 1200.01 244 558 0.306 10000.000 0.000 -0.483
138 414.00 1200.01 261 574 0.306 10000.000 0.000 -0.483
139 417.00 1200.01 226 592 0.306 10000.000 0.000 -0.483
140 420.00 1200.01 225 613 0.306 10000.000 0.000 -0.483
141 423.00 1200.01 270 617 0.306 10000.000 0.000 -0.483
