# BinNR microsec tot-time (s)  O-Beam AUX Ampl(V) f(Hz) phase(deg) chi(pos)
0 0.00 1200.01 128 256 1.610 10000.000 0.000 -0.659
1 3.00 1200.01 234 565 1.610 10000.000 0.000 -0.659
2 6.00 1200.01 277 586 1.610 10000.000 0.000 -0.659
3 9.00 1200.01 270 529 1.610 10000.000 0.000 -0.659
4 12.00 1200.01 266 491 1.610 10000.000 0.000 -0.659
5 15.00 1200.01 245 473 1.610 10000.000 0.000 -0.659
6 18.00 1200.01 278 429 1.610 10000.000 0.000 -0.659
7 21.00 1200.01 259 456 1.610 10000.000 0.000 -0.659
8 24.00 1200.01 243 427 1.610 10000.000 0.000 -0.659
9 27.00 1200.01 248 406 1.610 10000.000 0.000 -0.659
10 30.00 1200.01 254 433 1.610 10000.000 0.000 -0.659
11 33.00 1200.01 204 458 1.610 10000.000 0.000 -0.659
12 36.00 1200.01 237 439 1.610 10000.000 0.000 -0.659
13 39.00 1200.01 230 485 1.610 10000.000 0.000 -0.659
14 42.00 1200.01 217 518 1.610 10000.000 0.000 -0.659
15 45.00 1200.01 182 501 1.610 10000.000 0.000 -0.659
16 48.00 1200.01 211 580 1.610 10000.000 0.000 -0.659
17 51.00 1200.01 224 596 1.610 10000.000 0.000 -0.659
18 54.00 1200.01 237 648 1.610 10000.000 0.000 -0.659
19 57.00 1200.01 219 648 1.610 10000.000 0.000 -0.659
20 60.00 1200.01 226 662 1.610 10000.000 0.000 -0.659
21 63.00 1200.01 206 596 1.610 10000.000 0.000 -0.659
22 66.00 1200.01 213 651 1.610 10000.000 0.000 -0.659
23 69.00 1200.01 197 609 1.610 10000.000 0.000 -0.659
24 72.00 1200.01 239 615 1.610 10000.000 0.000 -0.659
25 75.00 1200.01 240 624 1.610 10000.000 0.000 -0.659
26 78.00 1200.01 250 622 1.610 10000.000 0.000 -0.659
27 81.00 1200.01 250 575 1.610 10000.000 0.000 -0.659
28 84.00 1200.01 251 605 1.610 10000.000 0.000 -0.659
29 87.00 1200.01 254 560 1.610 10000.000 0.000 -0.659
30 90.00 1200.01 249 553 1.610 10000.000 0.000 -0.659
31 93.00 1200.01 255 490 1.610 10000.000 0.000 -0.659
32 96.00 1200.01 243 487 1.610 10000.000 0.000 -0.659
33 99.00 1200.01 264 455 1.610 10000.000 0.000 -0.659
34 102.00 1200.01 253 430 1.610 10000.000 0.000 -0.659
35 105.00 1200.01 255 419 1.610 10000.000 0.000 -0.659
36 108.00 1200.01 244 380 1.610 10000.000 0.000 -0.659
37 111.00 1200.01 271 367 1.610 10000.000 0.000 -0.659
38 114.00 1200.01 259 391 1.610 10000.000 0.000 -0.659
39 117.00 1200.01 239 373 1.610 10000.000 0.000 -0.659
40 120.00 1200.01 260 358 1.610 10000.000 0.000 -0.659
41 123.00 1200.01 261 386 1.610 10000.000 0.000 -0.659
42 126.00 1200.01 238 403 1.610 10000.000 0.000 -0.659
43 129.00 1200.01 219 441 1.610 10000.000 0.000 -0.659
44 132.00 1200.01 228 436 1.610 10000.000 0.000 -0.659
45 135.00 1200.01 223 486 1.610 10000.000 0.000 -0.659
46 138.00 1200.01 245 519 1.610 10000.000 0.000 -0.659
47 141.00 1200.01 224 544 1.610 10000.000 0.000 -0.659
48 144.00 1200.01 204 529 1.610 10000.000 0.000 -0.659
49 147.00 1200.01 229 597 1.610 10000.000 0.000 -0.659
50 150.00 1200.01 222 597 1.610 10000.000 0.000 -0.659
51 153.00 1200.01 227 603 1.610 10000.000 0.000 -0.659
52 156.00 1200.01 195 612 1.610 10000.000 0.000 -0.659
53 159.00 1200.01 214 595 1.610 10000.000 0.000 -0.659
54 162.00 1200.01 213 616 1.610 10000.000 0.000 -0.659
55 165.00 1200.01 238 658 1.610 10000.000 0.000 -0.659
56 168.00 1200.01 229 655 1.610 10000.000 0.000 -0.659
57 171.00 1200.01 214 660 1.610 10000.000 0.000 -0.659
58 174.00 1200.01 234 640 1.610 10000.000 0.000 -0.659
59 177.00 1200.01 229 587 1.610 10000.000 0.000 -0.659
60 180.00 1200.01 241 630 1.610 10000.000 0.000 -0.659
61 183.00 1200.01 277 576 1.610 10000.000 0.000 -0.659
62 186.00 1200.01 261 576 1.610 10000.000 0.000 -0.659
63 189.00 1200.01 230 545 1.610 10000.000 0.000 -0.659
64 192.00 1200.01 244 491 1.610 10000.000 0.000 -0.659
65 195.00 1200.01 273 453 1.610 10000.000 0.000 -0.659
66 198.00 1200.01 271 436 1.610 10000.000 0.000 -0.659
67 201.00 1200.01 238 454 1.610 10000.000 0.000 -0.659
68 204.00 1200.01 239 425 1.610 10000.000 0.000 -0.659
69 207.00 1200.01 229 403 1.610 10000.000 0.000 -0.659
70 210.00 1200.01 276 409 1.610 10000.000 0.000 -0.659
71 213.00 1200.01 261 334 1.610 10000.000 0.000 -0.659
72 216.00 1200.01 261 348 1.610 10000.000 0.000 -0.659
73 219.00 1200.01 233 360 1.610 10000.000 0.000 -0.659
74 222.00 1200.01 240 395 1.610 10000.000 0.000 -0.659
75 225.00 1200.01 257 384 1.610 10000.000 0.000 -0.659
76 228.00 1200.01 216 417 1.610 10000.000 0.000 -0.659
77 231.00 1200.01 269 439 1.610 10000.000 0.000 -0.659
78 234.00 1200.01 229 509 1.610 10000.000 0.000 -0.659
79 237.00 1200.01 209 482 1.610 10000.000 0.000 -0.659
80 240.00 1200.01 228 550 1.610 10000.000 0.000 -0.659
81 243.00 1200.01 198 544 1.610 10000.000 0.000 -0.659
82 246.00 1200.01 209 574 1.610 10000.000 0.000 -0.659
83 249.00 1200.01 234 561 1.610 10000.000 0.000 -0.659
84 252.00 1200.01 243 603 1.610 10000.000 0.000 -0.659
85 255.00 1200.01 207 597 1.610 10000.000 0.000 -0.659
86 258.00 1200.01 258 629 1.610 10000.000 0.000 -0.659
87 261.00 1200.01 246 664 1.610 10000.000 0.000 -0.659
88 264.00 1200.01 258 632 1.610 10000.000 0.000 -0.659
89 267.00 1200.01 252 619 1.610 10000.000 0.000 -0.659
90 270.00 1200.01 257 679 1.610 10000.000 0.000 -0.659
91 273.00 1200.01 242 631 1.610 10000.000 0.000 -0.659
92 276.00 1200.01 255 611 1.610 10000.000 0.000 -0.659
93 279.00 1200.01 237 622 1.610 10000.000 0.000 -0.659
94 282.00 1200.01 273 577 1.610 10000.000 0.000 -0.659
95 285.00 1200.01 242 514 1.610 10000.000 0.000 -0.659
96 288.00 1200.01 199 549 1.610 10000.000 0.000 -0.659
97 291.00 1200.01 216 546 1.610 10000.000 0.000 -0.659
98 294.00 1200.01 206 471 1.610 10000.000 0.000 -0.659
99 297.00 1200.01 228 462 1.610 10000.000 0.000 -0.659
100 300.00 1200.01 227 424 1.610 10000.000 0.000 -0.659
101 303.00 1200.01 230 417 1.610 10000.000 0.000 -0.659
102 306.00 1200.01 218 417 1.610 10000.000 0.000 -0.659
103 309.00 1200.01 232 334 1.610 10000.000 0.000 -0.659
104 312.00 1200.01 236 398 1.610 10000.000 0.000 -0.659
105 315.00 1200.01 212 352 1.610 10000.000 0.000 -0.659
106 318.00 1200.01 268 384 1.610 10000.000 0.000 -0.659
107 321.00 1200.01 250 429 1.610 10000.000 0.000 -0.659
108 324.00 1200.01 238 361 1.610 10000.000 0.000 -0.659
109 327.00 1200.01 241 439 1.610 10000.000 0.000 -0.659
110 330.00 1200.01 243 413 1.610 10000.000 0.000 -0.659
111 333.00 1200.01 239 457 1.610 10000.000 0.000 -0.659
112 336.00 1200.01 262 472 1.610 10000.000 0.000 -0.659
113 339.00 1200.01 238 467 1.610 10000.000 0.000 -0.659
114 342.00 1200.01 247 563 1.610 10000.000 0.000 -0.659
115 345.00 1200.01 260 569 1.610 10000.000 0.000 -0.659
116 348.00 1200.01 238 560 1.610 10000.000 0.000 -0.659
117 351.00 1200.01 248 621 1.610 10000.000 0.000 -0.659
118 354.00 1200.01 265 642 1.610 10000.000 0.000 -0.659
119 357.00 1200.01 237 602 1.610 10000.000 0.000 -0.659
120 360.00 1200.01 249 618 1.610 10000.000 0.000 -0.659
121 363.00 1200.01 223 656 1.610 10000.000 0.000 -0.659
122 366.00 1200.01 221 650 1.610 10000.000 0.000 -0.659
123 369.00 1200.01 235 628 1.610 10000.000 0.000 -0.659
124 372.00 1200.01 216 654 1.610 10000.000 0.000 -0.659
125 375.00 1200.01 230 600 1.610 10000.000 0.000 -0.659
126 378.00 1200.01 210 610 1.610 10000.000 0.000 -0.659
127 381.00 1200.01 210 580 1.610 10000.000 0.000 -0.659
128 384.00 1200.01 236 623 1.610 10000.000 0.000 -0.659
129 387.00 1200.01 222 544 1.610 10000.000 0.000 -0.659
130 390.00 1200.01 227 504 1.610 10000.000 0.000 -0.659
131 393.00 1200.01 192 462 1.610 10000.000 0.000 -0.659
132 396.00 1200.01 210 483 1.610 10000.000 0.000 -0.659
133 399.00 1200.01 224 461 1.610 10000.000 0.000 -0.659
134 402.00 1200.01 232 386 1.610 10000.000 0.000 -0.659
135 405.00 1200.01 218 382 1.610 10000.000 0.000 -0.659
136 408.00 1200.01 246 392 1.610 10000.000 0.000 -0.659
137 411.00 1200.01 231 404 1.610 10000.000 0.000 -0.659
138 414.00 1200.01 277 423 1.610 10000.000 0.000 -0.659
139 417.00 1200.01 243 454 1.610 10000.000 0.000 -0.659
140 420.00 1200.01 278 436 1.610 10000.000 0.000 -0.659
141 423.00 1200.01 276 486 1.610 10000.000 0.000 -0.659
