# BinNR microsec tot-time (s)  O-Beam AUX Ampl(V) f(Hz) phase(deg) chi(pos)
0 0.00 1200.02 60 113 2.000 10000.000 0.000 0.901
1 3.00 1200.02 102 230 2.000 10000.000 0.000 0.901
2 6.00 1200.02 89 228 2.000 10000.000 0.000 0.901
3 9.00 1200.02 83 175 2.000 10000.000 0.000 0.901
4 12.00 1200.02 84 158 2.000 10000.000 0.000 0.901
5 15.00 1200.02 88 114 2.000 10000.000 0.000 0.901
6 18.00 1200.02 67 121 2.000 10000.000 0.000 0.901
7 21.00 1200.02 90 124 2.000 10000.000 0.000 0.901
8 24.00 1200.02 75 137 2.000 10000.000 0.000 0.901
9 27.00 1200.02 74 158 2.000 10000.000 0.000 0.901
10 30.00 1200.02 80 203 2.000 10000.000 0.000 0.901
11 33.00 1200.02 91 192 2.000 10000.000 0.000 0.901
12 36.00 1200.02 85 245 2.000 10000.000 0.000 0.901
13 39.00 1200.02 85 218 2.000 10000.000 0.000 0.901
14 42.00 1200.02 89 245 2.000 10000.000 0.000 0.901
15 45.00 1200.02 91 256 2.000 10000.000 0.000 0.901
16 48.00 1200.02 98 241 2.000 10000.000 0.000 0.901
17 51.00 1200.02 81 269 2.000 10000.000 0.000 0.901
18 54.00 1200.02 78 274 2.000 10000.000 0.000 0.901
19 57.00 1200.02 67 247 2.000 10000.000 0.000 0.901
20 60.00 1200.02 90 208 2.000 10000.000 0.000 0.901
21 63.00 1200.02 80 198 2.000 10000.000 0.000 0.901
22 66.00 1200.02 92 156 2.000 10000.000 0.000 0.901
23 69.00 1200.02 82 137 2.000 10000.000 0.000 0.901
24 72.00 1200.02 92 105 2.000 10000.000 0.000 0.901
25 75.00 1200.02 90 108 2.000 10000.000 0.000 0.901
26 78.00 1200.02 112 121 2.000 10000.000 0.000 0.901
27 81.00 1200.02 107 143 2.000 10000.000 0.000 0.901
28 84.00 1200.02 118 139 2.000 10000.000 0.000 0.901
29 87.00 1200.02 116 164 2.000 10000.000 0.000 0.901
30 90.00 1200.02 117 193 2.000 10000.000 0.000 0.901
31 93.00 1200.02 121 254 2.000 10000.000 0.000 0.901
32 96.00 1200.02 147 256 2.000 10000.000 0.000 0.901
33 99.00 1200.02 111 244 2.000 10000.000 0.000 0.901
34 102.00 1200.02 106 258 2.000 10000.000 0.000 0.901
35 105.00 1200.02 110 243 2.000 10000.000 0.000 0.901
36 108.00 1200.02 85 238 2.000 10000.000 0.000 0.901
37 111.00 1200.02 98 191 2.000 10000.000 0.000 0.901
38 114.00 1200.02 69 165 2.000 10000.000 0.000 0.901
39 117.00 1200.02 57 138 2.000 10000.000 0.000 0.901
40 120.00 1200.02 59 140 2.000 10000.000 0.000 0.901
41 123.00 1200.02 70 123 2.000 10000.000 0.000 0.901
42 126.00 1200.02 60 124 2.000 10000.000 0.000 0.901
43 129.00 1200.02 83 138 2.000 10000.000 0.000 0.901
44 132.00 1200.02 80 179 2.000 10000.000 0.000 0.901
45 135.00 1200.02 72 207 2.000 10000.000 0.000 0.901
46 138.00 1200.02 84 233 2.000 10000.000 0.000 0.901
47 141.00 1200.02 81 273 2.000 10000.000 0.000 0.901
48 144.00 1200.02 78 314 2.000 10000.000 0.000 0.901
49 147.00 1200.02 89 313 2.000 10000.000 0.000 0.901
50 150.00 1200.02 81 287 2.000 10000.000 0.000 0.901
51 153.00 1200.02 88 276 2.000 10000.000 0.000 0.901
52 156.00 1200.02 71 250 2.000 10000.000 0.000 0.901
53 159.00 1200.02 57 247 2.000 10000.000 0.000 0.901
54 162.00 1200.02 72 211 2.000 10000.000 0.000 0.901
55 165.00 1200.02 82 185 2.000 10000.000 0.000 0.901
56 168.00 1200.02 82 152 2.000 10000.000 0.000 0.901
57 171.00 1200.02 80 118 2.000 10000.000 0.000 0.901
58 174.00 1200.02 66 95 2.000 10000.000 0.000 0.901
59 177.00 1200.02 73 140 2.000 10000.000 0.000 0.901
60 180.00 1200.02 112 126 2.000 10000.000 0.000 0.901
61 183.00 1200.02 108 158 2.000 10000.000 0.000 0.901
62 186.00 1200.02 128 156 2.000 10000.000 0.000 0.901
63 189.00 1200.02 113 182 2.000 10000.000 0.000 0.901
64 192.00 1200.02 118 226 2.000 10000.000 0.000 0.901
65 195.00 1200.02 129 258 2.000 10000.000 0.000 0.901
66 198.00 1200.02 104 261 2.000 10000.000 0.000 0.901
67 201.00 1200.02 125 263 2.000 10000.000 0.000 0.901
68 204.00 1200.02 117 264 2.000 10000.000 0.000 0.901
69 207.00 1200.02 104 243 2.000 10000.000 0.000 0.901
70 210.00 1200.02 75 203 2.000 10000.000 0.000 0.901
71 213.00 1200.02 84 189 2.000 10000.000 0.000 0.901
72 216.00 1200.02 57 138 2.000 10000.000 0.000 0.901
73 219.00 1200.02 72 146 2.000 10000.000 0.000 0.901
74 222.00 1200.02 72 130 2.000 10000.000 0.000 0.901
75 225.00 1200.02 67 145 2.000 10000.000 0.000 0.901
76 228.00 1200.02 64 133 2.000 10000.000 0.000 0.901
77 231.00 1200.02 72 166 2.000 10000.000 0.000 0.901
78 234.00 1200.02 78 205 2.000 10000.000 0.000 0.901
79 237.00 1200.02 101 219 2.000 10000.000 0.000 0.901
80 240.00 1200.02 75 257 2.000 10000.000 0.000 0.901
81 243.00 1200.02 85 296 2.000 10000.000 0.000 0.901
82 246.00 1200.02 97 311 2.000 10000.000 0.000 0.901
83 249.00 1200.02 88 304 2.000 10000.000 0.000 0.901
84 252.00 1200.02 92 295 2.000 10000.000 0.000 0.901
85 255.00 1200.02 90 298 2.000 10000.000 0.000 0.901
86 258.00 1200.02 97 273 2.000 10000.000 0.000 0.901
87 261.00 1200.02 77 240 2.000 10000.000 0.000 0.901
88 264.00 1200.02 86 189 2.000 10000.000 0.000 0.901
89 267.00 1200.02 69 162 2.000 10000.000 0.000 0.901
90 270.00 1200.02 88 120 2.000 10000.000 0.000 0.901
91 273.00 1200.02 85 105 2.000 10000.000 0.000 0.901
92 276.00 1200.02 85 96 2.000 10000.000 0.000 0.901
93 279.00 1200.02 104 105 2.000 10000.000 0.000 0.901
94 282.00 1200.02 116 155 2.000 10000.000 0.000 0.901
95 285.00 1200.02 129 174 2.000 10000.000 0.000 0.901
96 288.00 1200.02 125 194 2.000 10000.000 0.000 0.901
97 291.00 1200.02 133 236 2.000 10000.000 0.000 0.901
98 294.00 1200.02 123 243 2.000 10000.000 0.000 0.901
99 297.00 1200.02 100 252 2.000 10000.000 0.000 0.901
100 300.00 1200.02 108 262 2.000 10000.000 0.000 0.901
101 303.00 1200.02 96 202 2.000 10000.000 0.000 0.901
