# BinNR microsec tot-time (s)  O-Beam AUX Ampl(V) f(Hz) phase(deg) chi(pos)
0 0.00 1200.00 91 207 2.000 10000.000 0.000 0.692
1 3.00 1200.00 160 399 2.000 10000.000 0.000 0.692
2 6.00 1200.00 153 405 2.000 10000.000 0.000 0.692
3 9.00 1200.00 153 378 2.000 10000.000 0.000 0.692
4 12.00 1200.00 122 325 2.000 10000.000 0.000 0.692
5 15.00 1200.00 112 279 2.000 10000.000 0.000 0.692
6 18.00 1200.00 110 231 2.000 10000.000 0.000 0.692
7 21.00 1200.00 92 197 2.000 10000.000 0.000 0.692
8 24.00 1200.00 97 148 2.000 10000.000 0.000 0.692
9 27.00 1200.00 87 145 2.000 10000.000 0.000 0.692
10 30.00 1200.00 74 128 2.000 10000.000 0.000 0.692
11 33.00 1200.00 56 133 2.000 10000.000 0.000 0.692
12 36.00 1200.00 84 153 2.000 10000.000 0.000 0.692
13 39.00 1200.00 69 132 2.000 10000.000 0.000 0.692
14 42.00 1200.00 70 127 2.000 10000.000 0.000 0.692
15 45.00 1200.00 63 117 2.000 10000.000 0.000 0.692
16 48.00 1200.00 65 137 2.000 10000.000 0.000 0.692
17 51.00 1200.00 64 127 2.000 10000.000 0.000 0.692
18 54.00 1200.00 87 133 2.000 10000.000 0.000 0.692
19 57.00 1200.00 77 144 2.000 10000.000 0.000 0.692
20 60.00 1200.00 96 116 2.000 10000.000 0.000 0.692
21 63.00 1200.00 101 119 2.000 10000.000 0.000 0.692
22 66.00 1200.00 150 137 2.000 10000.000 0.000 0.692
23 69.00 1200.00 111 131 2.000 10000.000 0.000 0.692
24 72.00 1200.00 145 148 2.000 10000.000 0.000 0.692
25 75.00 1200.00 142 169 2.000 10000.000 0.000 0.692
26 78.00 1200.00 152 212 2.000 10000.000 0.000 0.692
27 81.00 1200.00 174 265 2.000 10000.000 0.000 0.692
28 84.00 1200.00 184 320 2.000 10000.000 0.000 0.692
29 87.00 1200.00 189 382 2.000 10000.000 0.000 0.692
30 90.00 1200.00 199 398 2.000 10000.000 0.000 0.692
31 93.00 1200.00 200 402 2.000 10000.000 0.000 0.692
32 96.00 1200.00 188 537 2.000 10000.000 0.000 0.692
33 99.00 1200.00 177 470 2.000 10000.000 0.000 0.692
34 102.00 1200.00 173 510 2.000 10000.000 0.000 0.692
35 105.00 1200.00 165 508 2.000 10000.000 0.000 0.692
36 108.00 1200.00 132 454 2.000 10000.000 0.000 0.692
37 111.00 1200.00 166 344 2.000 10000.000 0.000 0.692
38 114.00 1200.00 116 344 2.000 10000.000 0.000 0.692
39 117.00 1200.00 102 270 2.000 10000.000 0.000 0.692
40 120.00 1200.00 74 258 2.000 10000.000 0.000 0.692
41 123.00 1200.00 102 202 2.000 10000.000 0.000 0.692
42 126.00 1200.00 85 155 2.000 10000.000 0.000 0.692
43 129.00 1200.00 69 149 2.000 10000.000 0.000 0.692
44 132.00 1200.00 70 139 2.000 10000.000 0.000 0.692
45 135.00 1200.00 63 127 2.000 10000.000 0.000 0.692
46 138.00 1200.00 69 126 2.000 10000.000 0.000 0.692
47 141.00 1200.00 77 143 2.000 10000.000 0.000 0.692
48 144.00 1200.00 62 153 2.000 10000.000 0.000 0.692
49 147.00 1200.00 67 155 2.000 10000.000 0.000 0.692
50 150.00 1200.00 76 157 2.000 10000.000 0.000 0.692
51 153.00 1200.00 69 142 2.000 10000.000 0.000 0.692
52 156.00 1200.00 63 127 2.000 10000.000 0.000 0.692
53 159.00 1200.00 74 131 2.000 10000.000 0.000 0.692
54 162.00 1200.00 87 134 2.000 10000.000 0.000 0.692
55 165.00 1200.00 97 118 2.000 10000.000 0.000 0.692
56 168.00 1200.00 103 123 2.000 10000.000 0.000 0.692
57 171.00 1200.00 121 142 2.000 10000.000 0.000 0.692
58 174.00 1200.00 129 160 2.000 10000.000 0.000 0.692
59 177.00 1200.00 163 194 2.000 10000.000 0.000 0.692
60 180.00 1200.00 164 231 2.000 10000.000 0.000 0.692
61 183.00 1200.00 202 299 2.000 10000.000 0.000 0.692
62 186.00 1200.00 176 382 2.000 10000.000 0.000 0.692
63 189.00 1200.00 166 389 2.000 10000.000 0.000 0.692
64 192.00 1200.00 185 475 2.000 10000.000 0.000 0.692
65 195.00 1200.00 191 443 2.000 10000.000 0.000 0.692
66 198.00 1200.00 198 458 2.000 10000.000 0.000 0.692
67 201.00 1200.00 181 456 2.000 10000.000 0.000 0.692
68 204.00 1200.00 176 454 2.000 10000.000 0.000 0.692
69 207.00 1200.00 150 419 2.000 10000.000 0.000 0.692
70 210.00 1200.00 184 419 2.000 10000.000 0.000 0.692
71 213.00 1200.00 150 375 2.000 10000.000 0.000 0.692
72 216.00 1200.00 119 319 2.000 10000.000 0.000 0.692
73 219.00 1200.00 104 228 2.000 10000.000 0.000 0.692
74 222.00 1200.00 110 224 2.000 10000.000 0.000 0.692
75 225.00 1200.00 113 195 2.000 10000.000 0.000 0.692
76 228.00 1200.00 83 162 2.000 10000.000 0.000 0.692
77 231.00 1200.00 75 118 2.000 10000.000 0.000 0.692
78 234.00 1200.00 60 119 2.000 10000.000 0.000 0.692
79 237.00 1200.00 83 138 2.000 10000.000 0.000 0.692
80 240.00 1200.00 71 156 2.000 10000.000 0.000 0.692
81 243.00 1200.00 77 160 2.000 10000.000 0.000 0.692
82 246.00 1200.00 71 151 2.000 10000.000 0.000 0.692
83 249.00 1200.00 91 140 2.000 10000.000 0.000 0.692
84 252.00 1200.00 75 151 2.000 10000.000 0.000 0.692
85 255.00 1200.00 72 161 2.000 10000.000 0.000 0.692
86 258.00 1200.00 71 136 2.000 10000.000 0.000 0.692
87 261.00 1200.00 84 128 2.000 10000.000 0.000 0.692
88 264.00 1200.00 86 117 2.000 10000.000 0.000 0.692
89 267.00 1200.00 106 108 2.000 10000.000 0.000 0.692
90 270.00 1200.00 116 131 2.000 10000.000 0.000 0.692
91 273.00 1200.00 133 163 2.000 10000.000 0.000 0.692
92 276.00 1200.00 110 167 2.000 10000.000 0.000 0.692
93 279.00 1200.00 164 235 2.000 10000.000 0.000 0.692
94 282.00 1200.00 177 294 2.000 10000.000 0.000 0.692
95 285.00 1200.00 160 354 2.000 10000.000 0.000 0.692
96 288.00 1200.00 178 379 2.000 10000.000 0.000 0.692
97 291.00 1200.00 217 410 2.000 10000.000 0.000 0.692
98 294.00 1200.00 190 486 2.000 10000.000 0.000 0.692
99 297.00 1200.00 210 460 2.000 10000.000 0.000 0.692
100 300.00 1200.00 194 521 2.000 10000.000 0.000 0.692
101 303.00 1200.00 150 400 2.000 10000.000 0.000 0.692
