# BinNR microsec tot-time (s)  O-Beam AUX Ampl(V) f(Hz) phase(deg) chi(pos)
0 0.00 1200.01 53 111 2.000 10000.000 0.000 1.494
1 3.00 1200.01 107 284 2.000 10000.000 0.000 1.494
2 6.00 1200.01 144 296 2.000 10000.000 0.000 1.494
3 9.00 1200.01 137 338 2.000 10000.000 0.000 1.494
4 12.00 1200.01 159 436 2.000 10000.000 0.000 1.494
5 15.00 1200.01 198 413 2.000 10000.000 0.000 1.494
6 18.00 1200.01 175 551 2.000 10000.000 0.000 1.494
7 21.00 1200.01 191 574 2.000 10000.000 0.000 1.494
8 24.00 1200.01 210 644 2.000 10000.000 0.000 1.494
9 27.00 1200.01 228 665 2.000 10000.000 0.000 1.494
10 30.00 1200.01 221 738 2.000 10000.000 0.000 1.494
11 33.00 1200.01 233 765 2.000 10000.000 0.000 1.494
12 36.00 1200.01 274 769 2.000 10000.000 0.000 1.494
13 39.00 1200.01 239 723 2.000 10000.000 0.000 1.494
14 42.00 1200.01 253 814 2.000 10000.000 0.000 1.494
15 45.00 1200.01 246 810 2.000 10000.000 0.000 1.494
16 48.00 1200.01 267 763 2.000 10000.000 0.000 1.494
17 51.00 1200.01 259 790 2.000 10000.000 0.000 1.494
18 54.00 1200.01 242 793 2.000 10000.000 0.000 1.494
19 57.00 1200.01 248 735 2.000 10000.000 0.000 1.494
20 60.00 1200.01 201 805 2.000 10000.000 0.000 1.494
21 63.00 1200.01 173 721 2.000 10000.000 0.000 1.494
22 66.00 1200.01 189 713 2.000 10000.000 0.000 1.494
23 69.00 1200.01 149 636 2.000 10000.000 0.000 1.494
24 72.00 1200.01 136 642 2.000 10000.000 0.000 1.494
25 75.00 1200.01 129 555 2.000 10000.000 0.000 1.494
26 78.00 1200.01 110 478 2.000 10000.000 0.000 1.494
27 81.00 1200.01 106 450 2.000 10000.000 0.000 1.494
28 84.00 1200.01 117 389 2.000 10000.000 0.000 1.494
29 87.00 1200.01 115 352 2.000 10000.000 0.000 1.494
30 90.00 1200.01 107 325 2.000 10000.000 0.000 1.494
31 93.00 1200.01 105 271 2.000 10000.000 0.000 1.494
32 96.00 1200.01 82 249 2.000 10000.000 0.000 1.494
33 99.00 1200.01 95 219 2.000 10000.000 0.000 1.494
34 102.00 1200.01 101 274 2.000 10000.000 0.000 1.494
35 105.00 1200.01 124 275 2.000 10000.000 0.000 1.494
36 108.00 1200.01 143 303 2.000 10000.000 0.000 1.494
37 111.00 1200.01 138 340 2.000 10000.000 0.000 1.494
38 114.00 1200.01 176 345 2.000 10000.000 0.000 1.494
39 117.00 1200.01 174 407 2.000 10000.000 0.000 1.494
40 120.00 1200.01 189 480 2.000 10000.000 0.000 1.494
41 123.00 1200.01 197 568 2.000 10000.000 0.000 1.494
42 126.00 1200.01 221 600 2.000 10000.000 0.000 1.494
43 129.00 1200.01 258 632 2.000 10000.000 0.000 1.494
44 132.00 1200.01 228 716 2.000 10000.000 0.000 1.494
45 135.00 1200.01 256 703 2.000 10000.000 0.000 1.494
46 138.00 1200.01 272 814 2.000 10000.000 0.000 1.494
47 141.00 1200.01 227 792 2.000 10000.000 0.000 1.494
48 144.00 1200.01 257 876 2.000 10000.000 0.000 1.494
49 147.00 1200.01 278 849 2.000 10000.000 0.000 1.494
50 150.00 1200.01 256 844 2.000 10000.000 0.000 1.494
51 153.00 1200.01 260 841 2.000 10000.000 0.000 1.494
52 156.00 1200.01 241 758 2.000 10000.000 0.000 1.494
53 159.00 1200.01 223 794 2.000 10000.000 0.000 1.494
54 162.00 1200.01 227 804 2.000 10000.000 0.000 1.494
55 165.00 1200.01 177 703 2.000 10000.000 0.000 1.494
56 168.00 1200.01 187 749 2.000 10000.000 0.000 1.494
57 171.00 1200.01 174 628 2.000 10000.000 0.000 1.494
58 174.00 1200.01 174 568 2.000 10000.000 0.000 1.494
59 177.00 1200.01 142 521 2.000 10000.000 0.000 1.494
60 180.00 1200.01 137 435 2.000 10000.000 0.000 1.494
61 183.00 1200.01 130 396 2.000 10000.000 0.000 1.494
62 186.00 1200.01 120 381 2.000 10000.000 0.000 1.494
63 189.00 1200.01 90 296 2.000 10000.000 0.000 1.494
64 192.00 1200.01 118 247 2.000 10000.000 0.000 1.494
65 195.00 1200.01 102 237 2.000 10000.000 0.000 1.494
66 198.00 1200.01 74 230 2.000 10000.000 0.000 1.494
67 201.00 1200.01 93 227 2.000 10000.000 0.000 1.494
68 204.00 1200.01 104 270 2.000 10000.000 0.000 1.494
69 207.00 1200.01 116 272 2.000 10000.000 0.000 1.494
70 210.00 1200.01 115 307 2.000 10000.000 0.000 1.494
71 213.00 1200.01 140 353 2.000 10000.000 0.000 1.494
72 216.00 1200.01 159 417 2.000 10000.000 0.000 1.494
73 219.00 1200.01 198 509 2.000 10000.000 0.000 1.494
74 222.00 1200.01 200 545 2.000 10000.000 0.000 1.494
75 225.00 1200.01 207 528 2.000 10000.000 0.000 1.494
76 228.00 1200.01 210 675 2.000 10000.000 0.000 1.494
77 231.00 1200.01 246 717 2.000 10000.000 0.000 1.494
78 234.00 1200.01 275 700 2.000 10000.000 0.000 1.494
79 237.00 1200.01 225 750 2.000 10000.000 0.000 1.494
80 240.00 1200.01 246 771 2.000 10000.000 0.000 1.494
81 243.00 1200.01 270 799 2.000 10000.000 0.000 1.494
82 246.00 1200.01 280 845 2.000 10000.000 0.000 1.494
83 249.00 1200.01 248 813 2.000 10000.000 0.000 1.494
84 252.00 1200.01 259 807 2.000 10000.000 0.000 1.494
85 255.00 1200.01 242 831 2.000 10000.000 0.000 1.494
86 258.00 1200.01 256 830 2.000 10000.000 0.000 1.494
87 261.00 1200.01 249 806 2.000 10000.000 0.000 1.494
88 264.00 1200.01 234 745 2.000 10000.000 0.000 1.494
89 267.00 1200.01 200 696 2.000 10000.000 0.000 1.494
90 270.00 1200.01 178 690 2.000 10000.000 0.000 1.494
91 273.00 1200.01 174 586 2.000 10000.000 0.000 1.494
92 276.00 1200.01 151 499 2.000 10000.000 0.000 1.494
93 279.00 1200.01 119 446 2.000 10000.000 0.000 1.494
94 282.00 1200.01 136 400 2.000 10000.000 0.000 1.494
95 285.00 1200.01 122 385 2.000 10000.000 0.000 1.494
96 288.00 1200.01 107 328 2.000 10000.000 0.000 1.494
97 291.00 1200.01 99 262 2.000 10000.000 0.000 1.494
98 294.00 1200.01 96 262 2.000 10000.000 0.000 1.494
99 297.00 1200.01 83 236 2.000 10000.000 0.000 1.494
100 300.00 1200.01 88 238 2.000 10000.000 0.000 1.494
101 303.00 1200.01 85 226 2.000 10000.000 0.000 1.494
