# BinNR microsec tot-time (s)  O-Beam AUX Ampl(V) f(Hz) phase(deg) chi(pos)
0 0.00 1200.04 95 203 2.000 10000.000 0.000 -1.296
1 3.00 1200.04 174 400 2.000 10000.000 0.000 -1.296
2 6.00 1200.04 183 398 2.000 10000.000 0.000 -1.296
3 9.00 1200.04 136 342 2.000 10000.000 0.000 -1.296
4 12.00 1200.04 141 281 2.000 10000.000 0.000 -1.296
5 15.00 1200.04 104 228 2.000 10000.000 0.000 -1.296
6 18.00 1200.04 101 209 2.000 10000.000 0.000 -1.296
7 21.00 1200.04 102 211 2.000 10000.000 0.000 -1.296
8 24.00 1200.04 98 166 2.000 10000.000 0.000 -1.296
9 27.00 1200.04 88 168 2.000 10000.000 0.000 -1.296
10 30.00 1200.04 96 165 2.000 10000.000 0.000 -1.296
11 33.00 1200.04 92 204 2.000 10000.000 0.000 -1.296
12 36.00 1200.04 86 230 2.000 10000.000 0.000 -1.296
13 39.00 1200.04 89 204 2.000 10000.000 0.000 -1.296
14 42.00 1200.04 96 224 2.000 10000.000 0.000 -1.296
15 45.00 1200.04 93 206 2.000 10000.000 0.000 -1.296
16 48.00 1200.04 85 197 2.000 10000.000 0.000 -1.296
17 51.00 1200.04 114 245 2.000 10000.000 0.000 -1.296
18 54.00 1200.04 92 219 2.000 10000.000 0.000 -1.296
19 57.00 1200.04 93 212 2.000 10000.000 0.000 -1.296
20 60.00 1200.04 103 210 2.000 10000.000 0.000 -1.296
21 63.00 1200.04 111 157 2.000 10000.000 0.000 -1.296
22 66.00 1200.04 104 172 2.000 10000.000 0.000 -1.296
23 69.00 1200.04 102 149 2.000 10000.000 0.000 -1.296
24 72.00 1200.04 123 165 2.000 10000.000 0.000 -1.296
25 75.00 1200.04 150 165 2.000 10000.000 0.000 -1.296
26 78.00 1200.04 142 196 2.000 10000.000 0.000 -1.296
27 81.00 1200.04 166 231 2.000 10000.000 0.000 -1.296
28 84.00 1200.04 176 263 2.000 10000.000 0.000 -1.296
29 87.00 1200.04 193 329 2.000 10000.000 0.000 -1.296
30 90.00 1200.04 188 354 2.000 10000.000 0.000 -1.296
31 93.00 1200.04 192 408 2.000 10000.000 0.000 -1.296
32 96.00 1200.04 185 387 2.000 10000.000 0.000 -1.296
33 99.00 1200.04 172 424 2.000 10000.000 0.000 -1.296
34 102.00 1200.04 177 461 2.000 10000.000 0.000 -1.296
35 105.00 1200.04 176 425 2.000 10000.000 0.000 -1.296
36 108.00 1200.04 166 390 2.000 10000.000 0.000 -1.296
37 111.00 1200.04 134 384 2.000 10000.000 0.000 -1.296
38 114.00 1200.04 135 330 2.000 10000.000 0.000 -1.296
39 117.00 1200.04 98 297 2.000 10000.000 0.000 -1.296
40 120.00 1200.04 99 251 2.000 10000.000 0.000 -1.296
41 123.00 1200.04 87 160 2.000 10000.000 0.000 -1.296
42 126.00 1200.04 95 183 2.000 10000.000 0.000 -1.296
43 129.00 1200.04 91 151 2.000 10000.000 0.000 -1.296
44 132.00 1200.04 74 199 2.000 10000.000 0.000 -1.296
45 135.00 1200.04 95 183 2.000 10000.000 0.000 -1.296
46 138.00 1200.04 88 210 2.000 10000.000 0.000 -1.296
47 141.00 1200.04 92 213 2.000 10000.000 0.000 -1.296
48 144.00 1200.04 84 264 2.000 10000.000 0.000 -1.296
49 147.00 1200.04 78 216 2.000 10000.000 0.000 -1.296
50 150.00 1200.04 104 258 2.000 10000.000 0.000 -1.296
51 153.00 1200.04 84 236 2.000 10000.000 0.000 -1.296
52 156.00 1200.04 85 233 2.000 10000.000 0.000 -1.296
53 159.00 1200.04 73 222 2.000 10000.000 0.000 -1.296
54 162.00 1200.04 89 194 2.000 10000.000 0.000 -1.296
55 165.00 1200.04 95 156 2.000 10000.000 0.000 -1.296
56 168.00 1200.04 109 179 2.000 10000.000 0.000 -1.296
57 171.00 1200.04 115 139 2.000 10000.000 0.000 -1.296
58 174.00 1200.04 126 161 2.000 10000.000 0.000 -1.296
59 177.00 1200.04 115 152 2.000 10000.000 0.000 -1.296
60 180.00 1200.04 131 226 2.000 10000.000 0.000 -1.296
61 183.00 1200.04 162 227 2.000 10000.000 0.000 -1.296
62 186.00 1200.04 178 269 2.000 10000.000 0.000 -1.296
63 189.00 1200.04 171 317 2.000 10000.000 0.000 -1.296
64 192.00 1200.04 176 406 2.000 10000.000 0.000 -1.296
65 195.00 1200.04 188 405 2.000 10000.000 0.000 -1.296
66 198.00 1200.04 179 434 2.000 10000.000 0.000 -1.296
67 201.00 1200.04 190 435 2.000 10000.000 0.000 -1.296
68 204.00 1200.04 184 462 2.000 10000.000 0.000 -1.296
69 207.00 1200.04 152 406 2.000 10000.000 0.000 -1.296
70 210.00 1200.04 174 364 2.000 10000.000 0.000 -1.296
71 213.00 1200.04 123 321 2.000 10000.000 0.000 -1.296
72 216.00 1200.04 131 292 2.000 10000.000 0.000 -1.296
73 219.00 1200.04 89 241 2.000 10000.000 0.000 -1.296
74 222.00 1200.04 97 201 2.000 10000.000 0.000 -1.296
75 225.00 1200.04 61 155 2.000 10000.000 0.000 -1.296
76 228.00 1200.04 103 178 2.000 10000.000 0.000 -1.296
77 231.00 1200.04 89 161 2.000 10000.000 0.000 -1.296
78 234.00 1200.04 74 170 2.000 10000.000 0.000 -1.296
79 237.00 1200.04 88 171 2.000 10000.000 0.000 -1.296
80 240.00 1200.04 115 191 2.000 10000.000 0.000 -1.296
81 243.00 1200.04 87 212 2.000 10000.000 0.000 -1.296
82 246.00 1200.04 85 247 2.000 10000.000 0.000 -1.296
83 249.00 1200.04 103 237 2.000 10000.000 0.000 -1.296
84 252.00 1200.04 118 258 2.000 10000.000 0.000 -1.296
85 255.00 1200.04 73 253 2.000 10000.000 0.000 -1.296
86 258.00 1200.04 85 219 2.000 10000.000 0.000 -1.296
87 261.00 1200.04 87 205 2.000 10000.000 0.000 -1.296
88 264.00 1200.04 101 197 2.000 10000.000 0.000 -1.296
89 267.00 1200.04 97 178 2.000 10000.000 0.000 -1.296
90 270.00 1200.04 127 148 2.000 10000.000 0.000 -1.296
91 273.00 1200.04 120 134 2.000 10000.000 0.000 -1.296
92 276.00 1200.04 131 171 2.000 10000.000 0.000 -1.296
93 279.00 1200.04 143 189 2.000 10000.000 0.000 -1.296
94 282.00 1200.04 152 226 2.000 10000.000 0.000 -1.296
95 285.00 1200.04 179 258 2.000 10000.000 0.000 -1.296
96 288.00 1200.04 193 322 2.000 10000.000 0.000 -1.296
97 291.00 1200.04 182 332 2.000 10000.000 0.000 -1.296
98 294.00 1200.04 204 403 2.000 10000.000 0.000 -1.296
99 297.00 1200.04 174 411 2.000 10000.000 0.000 -1.296
100 300.00 1200.04 212 453 2.000 10000.000 0.000 -1.296
101 303.00 1200.04 151 362 2.000 10000.000 0.000 -1.296
