# BinNR microsec tot-time (s)  O-Beam AUX Ampl(V) f(Hz) phase(deg) chi(pos)
0 0.00 1200.01 22 64 2.000 10000.000 0.000 1.296
1 3.00 1200.01 70 154 2.000 10000.000 0.000 1.296
2 6.00 1200.01 60 175 2.000 10000.000 0.000 1.296
3 9.00 1200.01 80 179 2.000 10000.000 0.000 1.296
4 12.00 1200.01 95 202 2.000 10000.000 0.000 1.296
5 15.00 1200.01 101 231 2.000 10000.000 0.000 1.296
6 18.00 1200.01 104 323 2.000 10000.000 0.000 1.296
7 21.00 1200.01 151 346 2.000 10000.000 0.000 1.296
8 24.00 1200.01 129 401 2.000 10000.000 0.000 1.296
9 27.00 1200.01 146 513 2.000 10000.000 0.000 1.296
10 30.00 1200.01 146 577 2.000 10000.000 0.000 1.296
11 33.00 1200.01 185 572 2.000 10000.000 0.000 1.296
12 36.00 1200.01 209 599 2.000 10000.000 0.000 1.296
13 39.00 1200.01 231 622 2.000 10000.000 0.000 1.296
14 42.00 1200.01 165 677 2.000 10000.000 0.000 1.296
15 45.00 1200.01 203 625 2.000 10000.000 0.000 1.296
16 48.00 1200.01 216 650 2.000 10000.000 0.000 1.296
17 51.00 1200.01 205 620 2.000 10000.000 0.000 1.296
18 54.00 1200.01 171 594 2.000 10000.000 0.000 1.296
19 57.00 1200.01 180 618 2.000 10000.000 0.000 1.296
20 60.00 1200.01 148 619 2.000 10000.000 0.000 1.296
21 63.00 1200.01 154 551 2.000 10000.000 0.000 1.296
22 66.00 1200.01 110 526 2.000 10000.000 0.000 1.296
23 69.00 1200.01 104 471 2.000 10000.000 0.000 1.296
24 72.00 1200.01 105 418 2.000 10000.000 0.000 1.296
25 75.00 1200.01 109 294 2.000 10000.000 0.000 1.296
26 78.00 1200.01 97 273 2.000 10000.000 0.000 1.296
27 81.00 1200.01 89 279 2.000 10000.000 0.000 1.296
28 84.00 1200.01 76 213 2.000 10000.000 0.000 1.296
29 87.00 1200.01 70 167 2.000 10000.000 0.000 1.296
30 90.00 1200.01 65 139 2.000 10000.000 0.000 1.296
31 93.00 1200.01 87 127 2.000 10000.000 0.000 1.296
32 96.00 1200.01 75 133 2.000 10000.000 0.000 1.296
33 99.00 1200.01 54 142 2.000 10000.000 0.000 1.296
34 102.00 1200.01 66 140 2.000 10000.000 0.000 1.296
35 105.00 1200.01 62 112 2.000 10000.000 0.000 1.296
36 108.00 1200.01 93 146 2.000 10000.000 0.000 1.296
37 111.00 1200.01 96 154 2.000 10000.000 0.000 1.296
38 114.00 1200.01 108 195 2.000 10000.000 0.000 1.296
39 117.00 1200.01 111 202 2.000 10000.000 0.000 1.296
40 120.00 1200.01 131 264 2.000 10000.000 0.000 1.296
41 123.00 1200.01 149 291 2.000 10000.000 0.000 1.296
42 126.00 1200.01 172 406 2.000 10000.000 0.000 1.296
43 129.00 1200.01 189 460 2.000 10000.000 0.000 1.296
44 132.00 1200.01 168 536 2.000 10000.000 0.000 1.296
45 135.00 1200.01 180 588 2.000 10000.000 0.000 1.296
46 138.00 1200.01 205 632 2.000 10000.000 0.000 1.296
47 141.00 1200.01 200 619 2.000 10000.000 0.000 1.296
48 144.00 1200.01 166 683 2.000 10000.000 0.000 1.296
49 147.00 1200.01 202 674 2.000 10000.000 0.000 1.296
50 150.00 1200.01 216 676 2.000 10000.000 0.000 1.296
51 153.00 1200.01 187 687 2.000 10000.000 0.000 1.296
52 156.00 1200.01 156 717 2.000 10000.000 0.000 1.296
53 159.00 1200.01 177 633 2.000 10000.000 0.000 1.296
54 162.00 1200.01 186 605 2.000 10000.000 0.000 1.296
55 165.00 1200.01 147 574 2.000 10000.000 0.000 1.296
56 168.00 1200.01 130 497 2.000 10000.000 0.000 1.296
57 171.00 1200.01 100 440 2.000 10000.000 0.000 1.296
58 174.00 1200.01 117 395 2.000 10000.000 0.000 1.296
59 177.00 1200.01 90 282 2.000 10000.000 0.000 1.296
60 180.00 1200.01 77 251 2.000 10000.000 0.000 1.296
61 183.00 1200.01 88 225 2.000 10000.000 0.000 1.296
62 186.00 1200.01 78 168 2.000 10000.000 0.000 1.296
63 189.00 1200.01 76 155 2.000 10000.000 0.000 1.296
64 192.00 1200.01 62 150 2.000 10000.000 0.000 1.296
65 195.00 1200.01 77 152 2.000 10000.000 0.000 1.296
66 198.00 1200.01 62 126 2.000 10000.000 0.000 1.296
67 201.00 1200.01 76 129 2.000 10000.000 0.000 1.296
68 204.00 1200.01 77 128 2.000 10000.000 0.000 1.296
69 207.00 1200.01 63 146 2.000 10000.000 0.000 1.296
70 210.00 1200.01 67 152 2.000 10000.000 0.000 1.296
71 213.00 1200.01 66 192 2.000 10000.000 0.000 1.296
72 216.00 1200.01 92 238 2.000 10000.000 0.000 1.296
73 219.00 1200.01 98 259 2.000 10000.000 0.000 1.296
74 222.00 1200.01 116 299 2.000 10000.000 0.000 1.296
75 225.00 1200.01 130 352 2.000 10000.000 0.000 1.296
76 228.00 1200.01 163 459 2.000 10000.000 0.000 1.296
77 231.00 1200.01 167 500 2.000 10000.000 0.000 1.296
78 234.00 1200.01 172 521 2.000 10000.000 0.000 1.296
79 237.00 1200.01 200 562 2.000 10000.000 0.000 1.296
80 240.00 1200.01 187 680 2.000 10000.000 0.000 1.296
81 243.00 1200.01 188 691 2.000 10000.000 0.000 1.296
82 246.00 1200.01 227 660 2.000 10000.000 0.000 1.296
83 249.00 1200.01 215 661 2.000 10000.000 0.000 1.296
84 252.00 1200.01 195 704 2.000 10000.000 0.000 1.296
85 255.00 1200.01 176 703 2.000 10000.000 0.000 1.296
86 258.00 1200.01 175 652 2.000 10000.000 0.000 1.296
87 261.00 1200.01 175 626 2.000 10000.000 0.000 1.296
88 264.00 1200.01 149 583 2.000 10000.000 0.000 1.296
89 267.00 1200.01 128 512 2.000 10000.000 0.000 1.296
90 270.00 1200.01 118 472 2.000 10000.000 0.000 1.296
91 273.00 1200.01 115 377 2.000 10000.000 0.000 1.296
92 276.00 1200.01 105 323 2.000 10000.000 0.000 1.296
93 279.00 1200.01 97 257 2.000 10000.000 0.000 1.296
94 282.00 1200.01 78 218 2.000 10000.000 0.000 1.296
95 285.00 1200.01 88 195 2.000 10000.000 0.000 1.296
96 288.00 1200.01 76 166 2.000 10000.000 0.000 1.296
97 291.00 1200.01 54 149 2.000 10000.000 0.000 1.296
98 294.00 1200.01 67 114 2.000 10000.000 0.000 1.296
99 297.00 1200.01 76 141 2.000 10000.000 0.000 1.296
100 300.00 1200.01 52 118 2.000 10000.000 0.000 1.296
101 303.00 1200.01 65 109 2.000 10000.000 0.000 1.296
