# BinNR microsec tot-time (s)  O-Beam AUX Ampl_1(V) f_1(Hz) phase_1(deg) Ampl_2(V) f_2(Hz) phase_2(deg) chi(pos)
0 0.00 1500.00 187 516 0.740 10000.000 0.000 0.610 15000.000 0.000 0.154
1 3.00 1500.00 387 932 0.740 10000.000 0.000 0.610 15000.000 0.000 0.154
2 6.00 1500.00 416 1036 0.740 10000.000 0.000 0.610 15000.000 0.000 0.154
3 9.00 1500.00 430 1047 0.740 10000.000 0.000 0.610 15000.000 0.000 0.154
4 12.00 1500.00 411 1016 0.740 10000.000 0.000 0.610 15000.000 0.000 0.154
5 15.00 1500.00 369 955 0.740 10000.000 0.000 0.610 15000.000 0.000 0.154
6 18.00 1500.00 398 977 0.740 10000.000 0.000 0.610 15000.000 0.000 0.154
7 21.00 1500.00 329 889 0.740 10000.000 0.000 0.610 15000.000 0.000 0.154
8 24.00 1500.00 371 834 0.740 10000.000 0.000 0.610 15000.000 0.000 0.154
9 27.00 1500.00 340 821 0.740 10000.000 0.000 0.610 15000.000 0.000 0.154
10 30.00 1500.00 362 825 0.740 10000.000 0.000 0.610 15000.000 0.000 0.154
11 33.00 1500.00 296 798 0.740 10000.000 0.000 0.610 15000.000 0.000 0.154
12 36.00 1500.00 331 771 0.740 10000.000 0.000 0.610 15000.000 0.000 0.154
13 39.00 1500.00 276 783 0.740 10000.000 0.000 0.610 15000.000 0.000 0.154
14 42.00 1500.00 303 876 0.740 10000.000 0.000 0.610 15000.000 0.000 0.154
15 45.00 1500.00 298 862 0.740 10000.000 0.000 0.610 15000.000 0.000 0.154
16 48.00 1500.00 333 962 0.740 10000.000 0.000 0.610 15000.000 0.000 0.154
17 51.00 1500.00 299 985 0.740 10000.000 0.000 0.610 15000.000 0.000 0.154
18 54.00 1500.00 318 1014 0.740 10000.000 0.000 0.610 15000.000 0.000 0.154
19 57.00 1500.00 332 975 0.740 10000.000 0.000 0.610 15000.000 0.000 0.154
20 60.00 1500.00 332 935 0.740 10000.000 0.000 0.610 15000.000 0.000 0.154
21 63.00 1500.00 373 908 0.740 10000.000 0.000 0.610 15000.000 0.000 0.154
22 66.00 1500.00 368 873 0.740 10000.000 0.000 0.610 15000.000 0.000 0.154
23 69.00 1500.00 362 817 0.740 10000.000 0.000 0.610 15000.000 0.000 0.154
24 72.00 1500.00 399 757 0.740 10000.000 0.000 0.610 15000.000 0.000 0.154
25 75.00 1500.00 429 690 0.740 10000.000 0.000 0.610 15000.000 0.000 0.154
26 78.00 1500.00 397 703 0.740 10000.000 0.000 0.610 15000.000 0.000 0.154
27 81.00 1500.00 404 627 0.740 10000.000 0.000 0.610 15000.000 0.000 0.154
28 84.00 1500.00 431 568 0.740 10000.000 0.000 0.610 15000.000 0.000 0.154
29 87.00 1500.00 402 505 0.740 10000.000 0.000 0.610 15000.000 0.000 0.154
30 90.00 1500.00 420 532 0.740 10000.000 0.000 0.610 15000.000 0.000 0.154
31 93.00 1500.00 406 561 0.740 10000.000 0.000 0.610 15000.000 0.000 0.154
32 96.00 1500.00 413 606 0.740 10000.000 0.000 0.610 15000.000 0.000 0.154
33 99.00 1500.00 343 619 0.740 10000.000 0.000 0.610 15000.000 0.000 0.154
34 102.00 1500.00 397 649 0.740 10000.000 0.000 0.610 15000.000 0.000 0.154
35 105.00 1500.00 375 748 0.740 10000.000 0.000 0.610 15000.000 0.000 0.154
36 108.00 1500.00 350 817 0.740 10000.000 0.000 0.610 15000.000 0.000 0.154
37 111.00 1500.00 326 786 0.740 10000.000 0.000 0.610 15000.000 0.000 0.154
38 114.00 1500.00 326 876 0.740 10000.000 0.000 0.610 15000.000 0.000 0.154
39 117.00 1500.00 330 894 0.740 10000.000 0.000 0.610 15000.000 0.000 0.154
40 120.00 1500.00 337 940 0.740 10000.000 0.000 0.610 15000.000 0.000 0.154
41 123.00 1500.00 293 910 0.740 10000.000 0.000 0.610 15000.000 0.000 0.154
42 126.00 1500.00 304 867 0.740 10000.000 0.000 0.610 15000.000 0.000 0.154
43 129.00 1500.00 311 911 0.740 10000.000 0.000 0.610 15000.000 0.000 0.154
44 132.00 1500.00 323 889 0.740 10000.000 0.000 0.610 15000.000 0.000 0.154
45 135.00 1500.00 314 905 0.740 10000.000 0.000 0.610 15000.000 0.000 0.154
46 138.00 1500.00 335 913 0.740 10000.000 0.000 0.610 15000.000 0.000 0.154
47 141.00 1500.00 318 873 0.740 10000.000 0.000 0.610 15000.000 0.000 0.154
48 144.00 1500.00 343 852 0.740 10000.000 0.000 0.610 15000.000 0.000 0.154
49 147.00 1500.00 345 791 0.740 10000.000 0.000 0.610 15000.000 0.000 0.154
50 150.00 1500.00 371 828 0.740 10000.000 0.000 0.610 15000.000 0.000 0.154
51 153.00 1500.00 367 866 0.740 10000.000 0.000 0.610 15000.000 0.000 0.154
52 156.00 1500.00 390 827 0.740 10000.000 0.000 0.610 15000.000 0.000 0.154
53 159.00 1500.00 339 865 0.740 10000.000 0.000 0.610 15000.000 0.000 0.154
54 162.00 1500.00 424 856 0.740 10000.000 0.000 0.610 15000.000 0.000 0.154
55 165.00 1500.00 397 870 0.740 10000.000 0.000 0.610 15000.000 0.000 0.154
56 168.00 1500.00 385 887 0.740 10000.000 0.000 0.610 15000.000 0.000 0.154
57 171.00 1500.00 358 892 0.740 10000.000 0.000 0.610 15000.000 0.000 0.154
58 174.00 1500.00 395 956 0.740 10000.000 0.000 0.610 15000.000 0.000 0.154
59 177.00 1500.00 358 928 0.740 10000.000 0.000 0.610 15000.000 0.000 0.154
60 180.00 1500.00 403 917 0.740 10000.000 0.000 0.610 15000.000 0.000 0.154
61 183.00 1500.00 368 842 0.740 10000.000 0.000 0.610 15000.000 0.000 0.154
62 186.00 1500.00 372 907 0.740 10000.000 0.000 0.610 15000.000 0.000 0.154
63 189.00 1500.00 372 785 0.740 10000.000 0.000 0.610 15000.000 0.000 0.154
64 192.00 1500.00 377 724 0.740 10000.000 0.000 0.610 15000.000 0.000 0.154
65 195.00 1500.00 340 647 0.740 10000.000 0.000 0.610 15000.000 0.000 0.154
66 198.00 1500.00 400 600 0.740 10000.000 0.000 0.610 15000.000 0.000 0.154
67 201.00 1500.00 396 592 0.740 10000.000 0.000 0.610 15000.000 0.000 0.154
68 204.00 1500.00 388 579 0.740 10000.000 0.000 0.610 15000.000 0.000 0.154
69 207.00 1500.00 367 541 0.740 10000.000 0.000 0.610 15000.000 0.000 0.154
70 210.00 1500.00 380 578 0.740 10000.000 0.000 0.610 15000.000 0.000 0.154
71 213.00 1500.00 397 579 0.740 10000.000 0.000 0.610 15000.000 0.000 0.154
72 216.00 1500.00 399 582 0.740 10000.000 0.000 0.610 15000.000 0.000 0.154
73 219.00 1500.00 354 681 0.740 10000.000 0.000 0.610 15000.000 0.000 0.154
74 222.00 1500.00 356 706 0.740 10000.000 0.000 0.610 15000.000 0.000 0.154
75 225.00 1500.00 357 713 0.740 10000.000 0.000 0.610 15000.000 0.000 0.154
76 228.00 1500.00 317 792 0.740 10000.000 0.000 0.610 15000.000 0.000 0.154
77 231.00 1500.00 316 894 0.740 10000.000 0.000 0.610 15000.000 0.000 0.154
78 234.00 1500.00 312 989 0.740 10000.000 0.000 0.610 15000.000 0.000 0.154
79 237.00 1500.00 333 972 0.740 10000.000 0.000 0.610 15000.000 0.000 0.154
80 240.00 1500.00 299 1074 0.740 10000.000 0.000 0.610 15000.000 0.000 0.154
81 243.00 1500.00 320 1087 0.740 10000.000 0.000 0.610 15000.000 0.000 0.154
82 246.00 1500.00 303 1148 0.740 10000.000 0.000 0.610 15000.000 0.000 0.154
83 249.00 1500.00 314 1112 0.740 10000.000 0.000 0.610 15000.000 0.000 0.154
84 252.00 1500.00 307 1106 0.740 10000.000 0.000 0.610 15000.000 0.000 0.154
85 255.00 1500.00 311 1073 0.740 10000.000 0.000 0.610 15000.000 0.000 0.154
86 258.00 1500.00 347 1116 0.740 10000.000 0.000 0.610 15000.000 0.000 0.154
87 261.00 1500.00 377 1005 0.740 10000.000 0.000 0.610 15000.000 0.000 0.154
88 264.00 1500.00 362 930 0.740 10000.000 0.000 0.610 15000.000 0.000 0.154
89 267.00 1500.00 388 847 0.740 10000.000 0.000 0.610 15000.000 0.000 0.154
90 270.00 1500.00 379 785 0.740 10000.000 0.000 0.610 15000.000 0.000 0.154
91 273.00 1500.00 379 672 0.740 10000.000 0.000 0.610 15000.000 0.000 0.154
92 276.00 1500.00 412 698 0.740 10000.000 0.000 0.610 15000.000 0.000 0.154
93 279.00 1500.00 384 531 0.740 10000.000 0.000 0.610 15000.000 0.000 0.154
94 282.00 1500.00 424 589 0.740 10000.000 0.000 0.610 15000.000 0.000 0.154
95 285.00 1500.00 410 532 0.740 10000.000 0.000 0.610 15000.000 0.000 0.154
96 288.00 1500.00 380 550 0.740 10000.000 0.000 0.610 15000.000 0.000 0.154
97 291.00 1500.00 381 557 0.740 10000.000 0.000 0.610 15000.000 0.000 0.154
98 294.00 1500.00 370 567 0.740 10000.000 0.000 0.610 15000.000 0.000 0.154
99 297.00 1500.00 393 619 0.740 10000.000 0.000 0.610 15000.000 0.000 0.154
100 300.00 1500.00 394 661 0.740 10000.000 0.000 0.610 15000.000 0.000 0.154
101 303.00 1500.00 377 809 0.740 10000.000 0.000 0.610 15000.000 0.000 0.154
102 306.00 1500.00 366 787 0.740 10000.000 0.000 0.610 15000.000 0.000 0.154
103 309.00 1500.00 386 780 0.740 10000.000 0.000 0.610 15000.000 0.000 0.154
104 312.00 1500.00 433 810 0.740 10000.000 0.000 0.610 15000.000 0.000 0.154
105 315.00 1500.00 393 827 0.740 10000.000 0.000 0.610 15000.000 0.000 0.154
106 318.00 1500.00 425 873 0.740 10000.000 0.000 0.610 15000.000 0.000 0.154
107 321.00 1500.00 376 922 0.740 10000.000 0.000 0.610 15000.000 0.000 0.154
108 324.00 1500.00 401 876 0.740 10000.000 0.000 0.610 15000.000 0.000 0.154
109 327.00 1500.00 389 894 0.740 10000.000 0.000 0.610 15000.000 0.000 0.154
110 330.00 1500.00 386 949 0.740 10000.000 0.000 0.610 15000.000 0.000 0.154
111 333.00 1500.00 375 899 0.740 10000.000 0.000 0.610 15000.000 0.000 0.154
112 336.00 1500.00 348 926 0.740 10000.000 0.000 0.610 15000.000 0.000 0.154
113 339.00 1500.00 351 813 0.740 10000.000 0.000 0.610 15000.000 0.000 0.154
114 342.00 1500.00 332 855 0.740 10000.000 0.000 0.610 15000.000 0.000 0.154
115 345.00 1500.00 297 837 0.740 10000.000 0.000 0.610 15000.000 0.000 0.154
116 348.00 1500.00 333 802 0.740 10000.000 0.000 0.610 15000.000 0.000 0.154
117 351.00 1500.00 345 839 0.740 10000.000 0.000 0.610 15000.000 0.000 0.154
118 354.00 1500.00 315 858 0.740 10000.000 0.000 0.610 15000.000 0.000 0.154
119 357.00 1500.00 312 833 0.740 10000.000 0.000 0.610 15000.000 0.000 0.154
120 360.00 1500.00 318 944 0.740 10000.000 0.000 0.610 15000.000 0.000 0.154
121 363.00 1500.00 321 854 0.740 10000.000 0.000 0.610 15000.000 0.000 0.154
122 366.00 1500.00 326 966 0.740 10000.000 0.000 0.610 15000.000 0.000 0.154
123 369.00 1500.00 335 849 0.740 10000.000 0.000 0.610 15000.000 0.000 0.154
124 372.00 1500.00 329 915 0.740 10000.000 0.000 0.610 15000.000 0.000 0.154
125 375.00 1500.00 338 896 0.740 10000.000 0.000 0.610 15000.000 0.000 0.154
126 378.00 1500.00 379 876 0.740 10000.000 0.000 0.610 15000.000 0.000 0.154
127 381.00 1500.00 320 913 0.740 10000.000 0.000 0.610 15000.000 0.000 0.154
128 384.00 1500.00 373 832 0.740 10000.000 0.000 0.610 15000.000 0.000 0.154
129 387.00 1500.00 339 764 0.740 10000.000 0.000 0.610 15000.000 0.000 0.154
130 390.00 1500.00 376 768 0.740 10000.000 0.000 0.610 15000.000 0.000 0.154
131 393.00 1500.00 379 729 0.740 10000.000 0.000 0.610 15000.000 0.000 0.154
132 396.00 1500.00 379 678 0.740 10000.000 0.000 0.610 15000.000 0.000 0.154
133 399.00 1500.00 389 575 0.740 10000.000 0.000 0.610 15000.000 0.000 0.154
134 402.00 1500.00 390 595 0.740 10000.000 0.000 0.610 15000.000 0.000 0.154
135 405.00 1500.00 393 599 0.740 10000.000 0.000 0.610 15000.000 0.000 0.154
136 408.00 1500.00 391 557 0.740 10000.000 0.000 0.610 15000.000 0.000 0.154
137 411.00 1500.00 388 534 0.740 10000.000 0.000 0.610 15000.000 0.000 0.154
138 414.00 1500.00 388 583 0.740 10000.000 0.000 0.610 15000.000 0.000 0.154
139 417.00 1500.00 373 605 0.740 10000.000 0.000 0.610 15000.000 0.000 0.154
140 420.00 1500.00 388 644 0.740 10000.000 0.000 0.610 15000.000 0.000 0.154
141 423.00 1500.00 371 702 0.740 10000.000 0.000 0.610 15000.000 0.000 0.154
142 426.00 1500.00 386 810 0.740 10000.000 0.000 0.610 15000.000 0.000 0.154
143 429.00 1500.00 373 870 0.740 10000.000 0.000 0.610 15000.000 0.000 0.154
144 432.00 1500.00 407 905 0.740 10000.000 0.000 0.610 15000.000 0.000 0.154
