# BinNR microsec tot-time (s)  O-Beam AUX Ampl_1(V) f_1(Hz) phase_1(deg) Ampl_2(V) f_2(Hz) phase_2(deg) chi(pos)
0 0.00 1500.02 146 483 0.740 10000.000 0.000 0.610 15000.000 0.000 1.505
1 3.00 1500.02 309 835 0.740 10000.000 0.000 0.610 15000.000 0.000 1.505
2 6.00 1500.02 287 863 0.740 10000.000 0.000 0.610 15000.000 0.000 1.505
3 9.00 1500.02 286 846 0.740 10000.000 0.000 0.610 15000.000 0.000 1.505
4 12.00 1500.02 314 907 0.740 10000.000 0.000 0.610 15000.000 0.000 1.505
5 15.00 1500.02 340 866 0.740 10000.000 0.000 0.610 15000.000 0.000 1.505
6 18.00 1500.02 336 944 0.740 10000.000 0.000 0.610 15000.000 0.000 1.505
7 21.00 1500.02 301 1027 0.740 10000.000 0.000 0.610 15000.000 0.000 1.505
8 24.00 1500.02 309 998 0.740 10000.000 0.000 0.610 15000.000 0.000 1.505
9 27.00 1500.02 335 994 0.740 10000.000 0.000 0.610 15000.000 0.000 1.505
10 30.00 1500.02 328 1028 0.740 10000.000 0.000 0.610 15000.000 0.000 1.505
11 33.00 1500.02 314 1026 0.740 10000.000 0.000 0.610 15000.000 0.000 1.505
12 36.00 1500.02 328 1037 0.740 10000.000 0.000 0.610 15000.000 0.000 1.505
13 39.00 1500.02 362 1070 0.740 10000.000 0.000 0.610 15000.000 0.000 1.505
14 42.00 1500.02 391 1054 0.740 10000.000 0.000 0.610 15000.000 0.000 1.505
15 45.00 1500.02 372 966 0.740 10000.000 0.000 0.610 15000.000 0.000 1.505
16 48.00 1500.02 364 960 0.740 10000.000 0.000 0.610 15000.000 0.000 1.505
17 51.00 1500.02 367 870 0.740 10000.000 0.000 0.610 15000.000 0.000 1.505
18 54.00 1500.02 366 894 0.740 10000.000 0.000 0.610 15000.000 0.000 1.505
19 57.00 1500.02 332 890 0.740 10000.000 0.000 0.610 15000.000 0.000 1.505
20 60.00 1500.02 339 927 0.740 10000.000 0.000 0.610 15000.000 0.000 1.505
21 63.00 1500.02 299 940 0.740 10000.000 0.000 0.610 15000.000 0.000 1.505
22 66.00 1500.02 311 962 0.740 10000.000 0.000 0.610 15000.000 0.000 1.505
23 69.00 1500.02 265 1089 0.740 10000.000 0.000 0.610 15000.000 0.000 1.505
24 72.00 1500.02 270 1090 0.740 10000.000 0.000 0.610 15000.000 0.000 1.505
25 75.00 1500.02 268 1150 0.740 10000.000 0.000 0.610 15000.000 0.000 1.505
26 78.00 1500.02 238 1228 0.740 10000.000 0.000 0.610 15000.000 0.000 1.505
27 81.00 1500.02 238 1192 0.740 10000.000 0.000 0.610 15000.000 0.000 1.505
28 84.00 1500.02 246 1257 0.740 10000.000 0.000 0.610 15000.000 0.000 1.505
29 87.00 1500.02 238 1225 0.740 10000.000 0.000 0.610 15000.000 0.000 1.505
30 90.00 1500.02 229 1271 0.740 10000.000 0.000 0.610 15000.000 0.000 1.505
31 93.00 1500.02 257 1271 0.740 10000.000 0.000 0.610 15000.000 0.000 1.505
32 96.00 1500.02 279 1209 0.740 10000.000 0.000 0.610 15000.000 0.000 1.505
33 99.00 1500.02 284 1221 0.740 10000.000 0.000 0.610 15000.000 0.000 1.505
34 102.00 1500.02 319 1108 0.740 10000.000 0.000 0.610 15000.000 0.000 1.505
35 105.00 1500.02 369 1060 0.740 10000.000 0.000 0.610 15000.000 0.000 1.505
36 108.00 1500.02 358 1035 0.740 10000.000 0.000 0.610 15000.000 0.000 1.505
37 111.00 1500.02 339 1000 0.740 10000.000 0.000 0.610 15000.000 0.000 1.505
38 114.00 1500.02 335 1037 0.740 10000.000 0.000 0.610 15000.000 0.000 1.505
39 117.00 1500.02 355 946 0.740 10000.000 0.000 0.610 15000.000 0.000 1.505
40 120.00 1500.02 376 1026 0.740 10000.000 0.000 0.610 15000.000 0.000 1.505
41 123.00 1500.02 412 1008 0.740 10000.000 0.000 0.610 15000.000 0.000 1.505
42 126.00 1500.02 366 1006 0.740 10000.000 0.000 0.610 15000.000 0.000 1.505
43 129.00 1500.02 360 967 0.740 10000.000 0.000 0.610 15000.000 0.000 1.505
44 132.00 1500.02 416 958 0.740 10000.000 0.000 0.610 15000.000 0.000 1.505
45 135.00 1500.02 343 1020 0.740 10000.000 0.000 0.610 15000.000 0.000 1.505
46 138.00 1500.02 338 1006 0.740 10000.000 0.000 0.610 15000.000 0.000 1.505
47 141.00 1500.02 368 1015 0.740 10000.000 0.000 0.610 15000.000 0.000 1.505
48 144.00 1500.02 331 1021 0.740 10000.000 0.000 0.610 15000.000 0.000 1.505
49 147.00 1500.02 321 1047 0.740 10000.000 0.000 0.610 15000.000 0.000 1.505
50 150.00 1500.02 314 1071 0.740 10000.000 0.000 0.610 15000.000 0.000 1.505
51 153.00 1500.02 271 991 0.740 10000.000 0.000 0.610 15000.000 0.000 1.505
52 156.00 1500.02 336 1009 0.740 10000.000 0.000 0.610 15000.000 0.000 1.505
53 159.00 1500.02 300 1013 0.740 10000.000 0.000 0.610 15000.000 0.000 1.505
54 162.00 1500.02 310 1036 0.740 10000.000 0.000 0.610 15000.000 0.000 1.505
55 165.00 1500.02 281 1029 0.740 10000.000 0.000 0.610 15000.000 0.000 1.505
56 168.00 1500.02 280 1002 0.740 10000.000 0.000 0.610 15000.000 0.000 1.505
57 171.00 1500.02 277 959 0.740 10000.000 0.000 0.610 15000.000 0.000 1.505
58 174.00 1500.02 314 993 0.740 10000.000 0.000 0.610 15000.000 0.000 1.505
59 177.00 1500.02 302 1000 0.740 10000.000 0.000 0.610 15000.000 0.000 1.505
60 180.00 1500.02 306 956 0.740 10000.000 0.000 0.610 15000.000 0.000 1.505
61 183.00 1500.02 302 1087 0.740 10000.000 0.000 0.610 15000.000 0.000 1.505
62 186.00 1500.02 286 973 0.740 10000.000 0.000 0.610 15000.000 0.000 1.505
63 189.00 1500.02 283 1043 0.740 10000.000 0.000 0.610 15000.000 0.000 1.505
64 192.00 1500.02 319 1120 0.740 10000.000 0.000 0.610 15000.000 0.000 1.505
65 195.00 1500.02 279 1073 0.740 10000.000 0.000 0.610 15000.000 0.000 1.505
66 198.00 1500.02 308 1163 0.740 10000.000 0.000 0.610 15000.000 0.000 1.505
67 201.00 1500.02 317 1132 0.740 10000.000 0.000 0.610 15000.000 0.000 1.505
68 204.00 1500.02 305 1173 0.740 10000.000 0.000 0.610 15000.000 0.000 1.505
69 207.00 1500.02 312 1168 0.740 10000.000 0.000 0.610 15000.000 0.000 1.505
70 210.00 1500.02 312 1158 0.740 10000.000 0.000 0.610 15000.000 0.000 1.505
71 213.00 1500.02 294 1147 0.740 10000.000 0.000 0.610 15000.000 0.000 1.505
72 216.00 1500.02 284 1194 0.740 10000.000 0.000 0.610 15000.000 0.000 1.505
73 219.00 1500.02 335 1165 0.740 10000.000 0.000 0.610 15000.000 0.000 1.505
74 222.00 1500.02 328 1078 0.740 10000.000 0.000 0.610 15000.000 0.000 1.505
75 225.00 1500.02 313 1121 0.740 10000.000 0.000 0.610 15000.000 0.000 1.505
76 228.00 1500.02 353 1028 0.740 10000.000 0.000 0.610 15000.000 0.000 1.505
77 231.00 1500.02 350 988 0.740 10000.000 0.000 0.610 15000.000 0.000 1.505
78 234.00 1500.02 337 974 0.740 10000.000 0.000 0.610 15000.000 0.000 1.505
79 237.00 1500.02 353 845 0.740 10000.000 0.000 0.610 15000.000 0.000 1.505
80 240.00 1500.02 359 787 0.740 10000.000 0.000 0.610 15000.000 0.000 1.505
81 243.00 1500.02 376 802 0.740 10000.000 0.000 0.610 15000.000 0.000 1.505
82 246.00 1500.02 375 805 0.740 10000.000 0.000 0.610 15000.000 0.000 1.505
83 249.00 1500.02 388 757 0.740 10000.000 0.000 0.610 15000.000 0.000 1.505
84 252.00 1500.02 364 767 0.740 10000.000 0.000 0.610 15000.000 0.000 1.505
85 255.00 1500.02 334 770 0.740 10000.000 0.000 0.610 15000.000 0.000 1.505
86 258.00 1500.02 386 867 0.740 10000.000 0.000 0.610 15000.000 0.000 1.505
87 261.00 1500.02 359 895 0.740 10000.000 0.000 0.610 15000.000 0.000 1.505
88 264.00 1500.02 332 906 0.740 10000.000 0.000 0.610 15000.000 0.000 1.505
89 267.00 1500.02 295 1063 0.740 10000.000 0.000 0.610 15000.000 0.000 1.505
90 270.00 1500.02 275 1085 0.740 10000.000 0.000 0.610 15000.000 0.000 1.505
91 273.00 1500.02 271 1118 0.740 10000.000 0.000 0.610 15000.000 0.000 1.505
92 276.00 1500.02 308 1182 0.740 10000.000 0.000 0.610 15000.000 0.000 1.505
93 279.00 1500.02 264 1170 0.740 10000.000 0.000 0.610 15000.000 0.000 1.505
94 282.00 1500.02 251 1164 0.740 10000.000 0.000 0.610 15000.000 0.000 1.505
95 285.00 1500.02 306 1159 0.740 10000.000 0.000 0.610 15000.000 0.000 1.505
96 288.00 1500.02 268 1216 0.740 10000.000 0.000 0.610 15000.000 0.000 1.505
97 291.00 1500.02 250 1142 0.740 10000.000 0.000 0.610 15000.000 0.000 1.505
98 294.00 1500.02 283 1235 0.740 10000.000 0.000 0.610 15000.000 0.000 1.505
99 297.00 1500.02 291 1129 0.740 10000.000 0.000 0.610 15000.000 0.000 1.505
100 300.00 1500.02 301 1186 0.740 10000.000 0.000 0.610 15000.000 0.000 1.505
101 303.00 1500.02 320 1181 0.740 10000.000 0.000 0.610 15000.000 0.000 1.505
102 306.00 1500.02 330 1049 0.740 10000.000 0.000 0.610 15000.000 0.000 1.505
103 309.00 1500.02 290 1055 0.740 10000.000 0.000 0.610 15000.000 0.000 1.505
104 312.00 1500.02 285 1030 0.740 10000.000 0.000 0.610 15000.000 0.000 1.505
105 315.00 1500.02 285 1008 0.740 10000.000 0.000 0.610 15000.000 0.000 1.505
106 318.00 1500.02 307 973 0.740 10000.000 0.000 0.610 15000.000 0.000 1.505
107 321.00 1500.02 308 920 0.740 10000.000 0.000 0.610 15000.000 0.000 1.505
108 324.00 1500.02 282 952 0.740 10000.000 0.000 0.610 15000.000 0.000 1.505
109 327.00 1500.02 272 985 0.740 10000.000 0.000 0.610 15000.000 0.000 1.505
110 330.00 1500.02 249 953 0.740 10000.000 0.000 0.610 15000.000 0.000 1.505
111 333.00 1500.02 276 958 0.740 10000.000 0.000 0.610 15000.000 0.000 1.505
112 336.00 1500.02 298 1006 0.740 10000.000 0.000 0.610 15000.000 0.000 1.505
113 339.00 1500.02 311 1009 0.740 10000.000 0.000 0.610 15000.000 0.000 1.505
114 342.00 1500.02 300 1022 0.740 10000.000 0.000 0.610 15000.000 0.000 1.505
115 345.00 1500.02 344 1004 0.740 10000.000 0.000 0.610 15000.000 0.000 1.505
116 348.00 1500.02 360 1038 0.740 10000.000 0.000 0.610 15000.000 0.000 1.505
117 351.00 1500.02 315 1023 0.740 10000.000 0.000 0.610 15000.000 0.000 1.505
118 354.00 1500.02 349 1031 0.740 10000.000 0.000 0.610 15000.000 0.000 1.505
119 357.00 1500.02 376 1037 0.740 10000.000 0.000 0.610 15000.000 0.000 1.505
120 360.00 1500.02 422 1043 0.740 10000.000 0.000 0.610 15000.000 0.000 1.505
121 363.00 1500.02 353 992 0.740 10000.000 0.000 0.610 15000.000 0.000 1.505
122 366.00 1500.02 375 1000 0.740 10000.000 0.000 0.610 15000.000 0.000 1.505
123 369.00 1500.02 336 998 0.740 10000.000 0.000 0.610 15000.000 0.000 1.505
124 372.00 1500.02 382 1018 0.740 10000.000 0.000 0.610 15000.000 0.000 1.505
125 375.00 1500.02 336 1008 0.740 10000.000 0.000 0.610 15000.000 0.000 1.505
126 378.00 1500.02 341 1013 0.740 10000.000 0.000 0.610 15000.000 0.000 1.505
127 381.00 1500.02 330 987 0.740 10000.000 0.000 0.610 15000.000 0.000 1.505
128 384.00 1500.02 356 1096 0.740 10000.000 0.000 0.610 15000.000 0.000 1.505
129 387.00 1500.02 298 1015 0.740 10000.000 0.000 0.610 15000.000 0.000 1.505
130 390.00 1500.02 264 1060 0.740 10000.000 0.000 0.610 15000.000 0.000 1.505
131 393.00 1500.02 295 1123 0.740 10000.000 0.000 0.610 15000.000 0.000 1.505
132 396.00 1500.02 289 1135 0.740 10000.000 0.000 0.610 15000.000 0.000 1.505
133 399.00 1500.02 267 1177 0.740 10000.000 0.000 0.610 15000.000 0.000 1.505
134 402.00 1500.02 284 1198 0.740 10000.000 0.000 0.610 15000.000 0.000 1.505
135 405.00 1500.02 301 1161 0.740 10000.000 0.000 0.610 15000.000 0.000 1.505
136 408.00 1500.02 317 1184 0.740 10000.000 0.000 0.610 15000.000 0.000 1.505
137 411.00 1500.02 270 1227 0.740 10000.000 0.000 0.610 15000.000 0.000 1.505
138 414.00 1500.02 310 1231 0.740 10000.000 0.000 0.610 15000.000 0.000 1.505
139 417.00 1500.02 319 1134 0.740 10000.000 0.000 0.610 15000.000 0.000 1.505
140 420.00 1500.02 309 1104 0.740 10000.000 0.000 0.610 15000.000 0.000 1.505
141 423.00 1500.02 316 1179 0.740 10000.000 0.000 0.610 15000.000 0.000 1.505
142 426.00 1500.02 333 1092 0.740 10000.000 0.000 0.610 15000.000 0.000 1.505
143 429.00 1500.02 301 953 0.740 10000.000 0.000 0.610 15000.000 0.000 1.505
144 432.00 1500.02 303 996 0.740 10000.000 0.000 0.610 15000.000 0.000 1.505
