# BinNR microsec tot-time (s)  O-Beam AUX Ampl_1(V) f_1(Hz) phase_1(deg) Ampl_2(V) f_2(Hz) phase_2(deg) chi(pos)
0 0.00 1500.00 192 597 0.740 10000.000 0.000 0.610 15000.000 0.000 -0.165
1 3.00 1500.00 417 1224 0.740 10000.000 0.000 0.610 15000.000 0.000 -0.165
2 6.00 1500.00 424 1297 0.740 10000.000 0.000 0.610 15000.000 0.000 -0.165
3 9.00 1500.00 431 1204 0.740 10000.000 0.000 0.610 15000.000 0.000 -0.165
4 12.00 1500.00 445 1306 0.740 10000.000 0.000 0.610 15000.000 0.000 -0.165
5 15.00 1500.00 410 1270 0.740 10000.000 0.000 0.610 15000.000 0.000 -0.165
6 18.00 1500.00 408 1278 0.740 10000.000 0.000 0.610 15000.000 0.000 -0.165
7 21.00 1500.00 427 1205 0.740 10000.000 0.000 0.610 15000.000 0.000 -0.165
8 24.00 1500.00 408 1214 0.740 10000.000 0.000 0.610 15000.000 0.000 -0.165
9 27.00 1500.00 404 1235 0.740 10000.000 0.000 0.610 15000.000 0.000 -0.165
10 30.00 1500.00 436 1223 0.740 10000.000 0.000 0.610 15000.000 0.000 -0.165
11 33.00 1500.00 400 1131 0.740 10000.000 0.000 0.610 15000.000 0.000 -0.165
12 36.00 1500.00 457 1201 0.740 10000.000 0.000 0.610 15000.000 0.000 -0.165
13 39.00 1500.00 419 1162 0.740 10000.000 0.000 0.610 15000.000 0.000 -0.165
14 42.00 1500.00 467 1185 0.740 10000.000 0.000 0.610 15000.000 0.000 -0.165
15 45.00 1500.00 441 1153 0.740 10000.000 0.000 0.610 15000.000 0.000 -0.165
16 48.00 1500.00 444 1267 0.740 10000.000 0.000 0.610 15000.000 0.000 -0.165
17 51.00 1500.00 419 1229 0.740 10000.000 0.000 0.610 15000.000 0.000 -0.165
18 54.00 1500.00 401 1287 0.740 10000.000 0.000 0.610 15000.000 0.000 -0.165
19 57.00 1500.00 453 1222 0.740 10000.000 0.000 0.610 15000.000 0.000 -0.165
20 60.00 1500.00 431 1238 0.740 10000.000 0.000 0.610 15000.000 0.000 -0.165
21 63.00 1500.00 412 1278 0.740 10000.000 0.000 0.610 15000.000 0.000 -0.165
22 66.00 1500.00 415 1247 0.740 10000.000 0.000 0.610 15000.000 0.000 -0.165
23 69.00 1500.00 359 1172 0.740 10000.000 0.000 0.610 15000.000 0.000 -0.165
24 72.00 1500.00 424 1132 0.740 10000.000 0.000 0.610 15000.000 0.000 -0.165
25 75.00 1500.00 406 1128 0.740 10000.000 0.000 0.610 15000.000 0.000 -0.165
26 78.00 1500.00 414 1112 0.740 10000.000 0.000 0.610 15000.000 0.000 -0.165
27 81.00 1500.00 395 1038 0.740 10000.000 0.000 0.610 15000.000 0.000 -0.165
28 84.00 1500.00 402 1109 0.740 10000.000 0.000 0.610 15000.000 0.000 -0.165
29 87.00 1500.00 417 992 0.740 10000.000 0.000 0.610 15000.000 0.000 -0.165
30 90.00 1500.00 408 1071 0.740 10000.000 0.000 0.610 15000.000 0.000 -0.165
31 93.00 1500.00 381 1073 0.740 10000.000 0.000 0.610 15000.000 0.000 -0.165
32 96.00 1500.00 435 1151 0.740 10000.000 0.000 0.610 15000.000 0.000 -0.165
33 99.00 1500.00 389 1103 0.740 10000.000 0.000 0.610 15000.000 0.000 -0.165
34 102.00 1500.00 385 1162 0.740 10000.000 0.000 0.610 15000.000 0.000 -0.165
35 105.00 1500.00 398 1134 0.740 10000.000 0.000 0.610 15000.000 0.000 -0.165
36 108.00 1500.00 394 1133 0.740 10000.000 0.000 0.610 15000.000 0.000 -0.165
37 111.00 1500.00 407 1165 0.740 10000.000 0.000 0.610 15000.000 0.000 -0.165
38 114.00 1500.00 438 1214 0.740 10000.000 0.000 0.610 15000.000 0.000 -0.165
39 117.00 1500.00 400 1291 0.740 10000.000 0.000 0.610 15000.000 0.000 -0.165
40 120.00 1500.00 376 1189 0.740 10000.000 0.000 0.610 15000.000 0.000 -0.165
41 123.00 1500.00 450 1196 0.740 10000.000 0.000 0.610 15000.000 0.000 -0.165
42 126.00 1500.00 412 1314 0.740 10000.000 0.000 0.610 15000.000 0.000 -0.165
43 129.00 1500.00 429 1222 0.740 10000.000 0.000 0.610 15000.000 0.000 -0.165
44 132.00 1500.00 448 1248 0.740 10000.000 0.000 0.610 15000.000 0.000 -0.165
45 135.00 1500.00 422 1231 0.740 10000.000 0.000 0.610 15000.000 0.000 -0.165
46 138.00 1500.00 389 1196 0.740 10000.000 0.000 0.610 15000.000 0.000 -0.165
47 141.00 1500.00 378 1199 0.740 10000.000 0.000 0.610 15000.000 0.000 -0.165
48 144.00 1500.00 424 1187 0.740 10000.000 0.000 0.610 15000.000 0.000 -0.165
49 147.00 1500.00 439 1170 0.740 10000.000 0.000 0.610 15000.000 0.000 -0.165
50 150.00 1500.00 458 1268 0.740 10000.000 0.000 0.610 15000.000 0.000 -0.165
51 153.00 1500.00 410 1236 0.740 10000.000 0.000 0.610 15000.000 0.000 -0.165
52 156.00 1500.00 407 1263 0.740 10000.000 0.000 0.610 15000.000 0.000 -0.165
53 159.00 1500.00 383 1206 0.740 10000.000 0.000 0.610 15000.000 0.000 -0.165
54 162.00 1500.00 413 1237 0.740 10000.000 0.000 0.610 15000.000 0.000 -0.165
55 165.00 1500.00 426 1248 0.740 10000.000 0.000 0.610 15000.000 0.000 -0.165
56 168.00 1500.00 410 1226 0.740 10000.000 0.000 0.610 15000.000 0.000 -0.165
57 171.00 1500.00 394 1221 0.740 10000.000 0.000 0.610 15000.000 0.000 -0.165
58 174.00 1500.00 421 1230 0.740 10000.000 0.000 0.610 15000.000 0.000 -0.165
59 177.00 1500.00 436 1190 0.740 10000.000 0.000 0.610 15000.000 0.000 -0.165
60 180.00 1500.00 440 1235 0.740 10000.000 0.000 0.610 15000.000 0.000 -0.165
61 183.00 1500.00 401 1238 0.740 10000.000 0.000 0.610 15000.000 0.000 -0.165
62 186.00 1500.00 448 1244 0.740 10000.000 0.000 0.610 15000.000 0.000 -0.165
63 189.00 1500.00 383 1100 0.740 10000.000 0.000 0.610 15000.000 0.000 -0.165
64 192.00 1500.00 409 1217 0.740 10000.000 0.000 0.610 15000.000 0.000 -0.165
65 195.00 1500.00 420 1148 0.740 10000.000 0.000 0.610 15000.000 0.000 -0.165
66 198.00 1500.00 458 1060 0.740 10000.000 0.000 0.610 15000.000 0.000 -0.165
67 201.00 1500.00 402 1091 0.740 10000.000 0.000 0.610 15000.000 0.000 -0.165
68 204.00 1500.00 443 1093 0.740 10000.000 0.000 0.610 15000.000 0.000 -0.165
69 207.00 1500.00 426 1070 0.740 10000.000 0.000 0.610 15000.000 0.000 -0.165
70 210.00 1500.00 415 1090 0.740 10000.000 0.000 0.610 15000.000 0.000 -0.165
71 213.00 1500.00 431 983 0.740 10000.000 0.000 0.610 15000.000 0.000 -0.165
72 216.00 1500.00 422 1111 0.740 10000.000 0.000 0.610 15000.000 0.000 -0.165
73 219.00 1500.00 395 1080 0.740 10000.000 0.000 0.610 15000.000 0.000 -0.165
74 222.00 1500.00 416 1131 0.740 10000.000 0.000 0.610 15000.000 0.000 -0.165
75 225.00 1500.00 444 1166 0.740 10000.000 0.000 0.610 15000.000 0.000 -0.165
76 228.00 1500.00 422 1182 0.740 10000.000 0.000 0.610 15000.000 0.000 -0.165
77 231.00 1500.00 410 1242 0.740 10000.000 0.000 0.610 15000.000 0.000 -0.165
78 234.00 1500.00 423 1269 0.740 10000.000 0.000 0.610 15000.000 0.000 -0.165
79 237.00 1500.00 434 1205 0.740 10000.000 0.000 0.610 15000.000 0.000 -0.165
80 240.00 1500.00 430 1196 0.740 10000.000 0.000 0.610 15000.000 0.000 -0.165
81 243.00 1500.00 435 1183 0.740 10000.000 0.000 0.610 15000.000 0.000 -0.165
82 246.00 1500.00 413 1215 0.740 10000.000 0.000 0.610 15000.000 0.000 -0.165
83 249.00 1500.00 432 1213 0.740 10000.000 0.000 0.610 15000.000 0.000 -0.165
84 252.00 1500.00 438 1229 0.740 10000.000 0.000 0.610 15000.000 0.000 -0.165
85 255.00 1500.00 414 1243 0.740 10000.000 0.000 0.610 15000.000 0.000 -0.165
86 258.00 1500.00 414 1233 0.740 10000.000 0.000 0.610 15000.000 0.000 -0.165
87 261.00 1500.00 420 1217 0.740 10000.000 0.000 0.610 15000.000 0.000 -0.165
88 264.00 1500.00 460 1254 0.740 10000.000 0.000 0.610 15000.000 0.000 -0.165
89 267.00 1500.00 389 1153 0.740 10000.000 0.000 0.610 15000.000 0.000 -0.165
90 270.00 1500.00 401 1201 0.740 10000.000 0.000 0.610 15000.000 0.000 -0.165
91 273.00 1500.00 371 1140 0.740 10000.000 0.000 0.610 15000.000 0.000 -0.165
92 276.00 1500.00 393 1133 0.740 10000.000 0.000 0.610 15000.000 0.000 -0.165
93 279.00 1500.00 413 1053 0.740 10000.000 0.000 0.610 15000.000 0.000 -0.165
94 282.00 1500.00 414 1074 0.740 10000.000 0.000 0.610 15000.000 0.000 -0.165
95 285.00 1500.00 355 1038 0.740 10000.000 0.000 0.610 15000.000 0.000 -0.165
96 288.00 1500.00 409 1071 0.740 10000.000 0.000 0.610 15000.000 0.000 -0.165
97 291.00 1500.00 393 1053 0.740 10000.000 0.000 0.610 15000.000 0.000 -0.165
98 294.00 1500.00 412 1040 0.740 10000.000 0.000 0.610 15000.000 0.000 -0.165
99 297.00 1500.00 439 1002 0.740 10000.000 0.000 0.610 15000.000 0.000 -0.165
100 300.00 1500.00 432 1103 0.740 10000.000 0.000 0.610 15000.000 0.000 -0.165
101 303.00 1500.00 445 1123 0.740 10000.000 0.000 0.610 15000.000 0.000 -0.165
102 306.00 1500.00 453 1220 0.740 10000.000 0.000 0.610 15000.000 0.000 -0.165
103 309.00 1500.00 425 1119 0.740 10000.000 0.000 0.610 15000.000 0.000 -0.165
104 312.00 1500.00 427 1184 0.740 10000.000 0.000 0.610 15000.000 0.000 -0.165
105 315.00 1500.00 425 1224 0.740 10000.000 0.000 0.610 15000.000 0.000 -0.165
106 318.00 1500.00 429 1256 0.740 10000.000 0.000 0.610 15000.000 0.000 -0.165
107 321.00 1500.00 442 1176 0.740 10000.000 0.000 0.610 15000.000 0.000 -0.165
108 324.00 1500.00 422 1246 0.740 10000.000 0.000 0.610 15000.000 0.000 -0.165
109 327.00 1500.00 401 1211 0.740 10000.000 0.000 0.610 15000.000 0.000 -0.165
110 330.00 1500.00 443 1220 0.740 10000.000 0.000 0.610 15000.000 0.000 -0.165
111 333.00 1500.00 398 1206 0.740 10000.000 0.000 0.610 15000.000 0.000 -0.165
112 336.00 1500.00 406 1285 0.740 10000.000 0.000 0.610 15000.000 0.000 -0.165
113 339.00 1500.00 420 1172 0.740 10000.000 0.000 0.610 15000.000 0.000 -0.165
114 342.00 1500.00 420 1184 0.740 10000.000 0.000 0.610 15000.000 0.000 -0.165
115 345.00 1500.00 421 1190 0.740 10000.000 0.000 0.610 15000.000 0.000 -0.165
116 348.00 1500.00 475 1286 0.740 10000.000 0.000 0.610 15000.000 0.000 -0.165
117 351.00 1500.00 422 1267 0.740 10000.000 0.000 0.610 15000.000 0.000 -0.165
118 354.00 1500.00 423 1229 0.740 10000.000 0.000 0.610 15000.000 0.000 -0.165
119 357.00 1500.00 407 1180 0.740 10000.000 0.000 0.610 15000.000 0.000 -0.165
120 360.00 1500.00 429 1119 0.740 10000.000 0.000 0.610 15000.000 0.000 -0.165
121 363.00 1500.00 390 1178 0.740 10000.000 0.000 0.610 15000.000 0.000 -0.165
122 366.00 1500.00 439 1270 0.740 10000.000 0.000 0.610 15000.000 0.000 -0.165
123 369.00 1500.00 436 1263 0.740 10000.000 0.000 0.610 15000.000 0.000 -0.165
124 372.00 1500.00 393 1200 0.740 10000.000 0.000 0.610 15000.000 0.000 -0.165
125 375.00 1500.00 391 1128 0.740 10000.000 0.000 0.610 15000.000 0.000 -0.165
126 378.00 1500.00 415 1298 0.740 10000.000 0.000 0.610 15000.000 0.000 -0.165
127 381.00 1500.00 415 1286 0.740 10000.000 0.000 0.610 15000.000 0.000 -0.165
128 384.00 1500.00 448 1205 0.740 10000.000 0.000 0.610 15000.000 0.000 -0.165
129 387.00 1500.00 436 1157 0.740 10000.000 0.000 0.610 15000.000 0.000 -0.165
130 390.00 1500.00 444 1158 0.740 10000.000 0.000 0.610 15000.000 0.000 -0.165
131 393.00 1500.00 423 1103 0.740 10000.000 0.000 0.610 15000.000 0.000 -0.165
132 396.00 1500.00 424 1191 0.740 10000.000 0.000 0.610 15000.000 0.000 -0.165
133 399.00 1500.00 387 1048 0.740 10000.000 0.000 0.610 15000.000 0.000 -0.165
134 402.00 1500.00 435 1066 0.740 10000.000 0.000 0.610 15000.000 0.000 -0.165
135 405.00 1500.00 399 1028 0.740 10000.000 0.000 0.610 15000.000 0.000 -0.165
136 408.00 1500.00 434 1062 0.740 10000.000 0.000 0.610 15000.000 0.000 -0.165
137 411.00 1500.00 406 1036 0.740 10000.000 0.000 0.610 15000.000 0.000 -0.165
138 414.00 1500.00 430 1022 0.740 10000.000 0.000 0.610 15000.000 0.000 -0.165
139 417.00 1500.00 407 1073 0.740 10000.000 0.000 0.610 15000.000 0.000 -0.165
140 420.00 1500.00 434 1131 0.740 10000.000 0.000 0.610 15000.000 0.000 -0.165
141 423.00 1500.00 393 1164 0.740 10000.000 0.000 0.610 15000.000 0.000 -0.165
142 426.00 1500.00 392 1199 0.740 10000.000 0.000 0.610 15000.000 0.000 -0.165
143 429.00 1500.00 409 1251 0.740 10000.000 0.000 0.610 15000.000 0.000 -0.165
144 432.00 1500.00 402 1177 0.740 10000.000 0.000 0.610 15000.000 0.000 -0.165
