# BinNR microsec tot-time (s)  O-Beam AUX Ampl_1(V) f_1(Hz) phase_1(deg) Ampl_2(V) f_2(Hz) phase_2(deg) chi(pos)
0 0.00 1500.00 66 217 0.740 10000.000 0.000 0.610 15000.000 0.000 1.165
1 3.00 1500.00 142 373 0.740 10000.000 0.000 0.610 15000.000 0.000 1.165
2 6.00 1500.00 134 321 0.740 10000.000 0.000 0.610 15000.000 0.000 1.165
3 9.00 1500.00 150 352 0.740 10000.000 0.000 0.610 15000.000 0.000 1.165
4 12.00 1500.00 125 339 0.740 10000.000 0.000 0.610 15000.000 0.000 1.165
5 15.00 1500.00 152 339 0.740 10000.000 0.000 0.610 15000.000 0.000 1.165
6 18.00 1500.00 179 370 0.740 10000.000 0.000 0.610 15000.000 0.000 1.165
7 21.00 1500.00 167 418 0.740 10000.000 0.000 0.610 15000.000 0.000 1.165
8 24.00 1500.00 154 452 0.740 10000.000 0.000 0.610 15000.000 0.000 1.165
9 27.00 1500.00 161 453 0.740 10000.000 0.000 0.610 15000.000 0.000 1.165
10 30.00 1500.00 203 500 0.740 10000.000 0.000 0.610 15000.000 0.000 1.165
11 33.00 1500.00 202 494 0.740 10000.000 0.000 0.610 15000.000 0.000 1.165
12 36.00 1500.00 226 470 0.740 10000.000 0.000 0.610 15000.000 0.000 1.165
13 39.00 1500.00 213 530 0.740 10000.000 0.000 0.610 15000.000 0.000 1.165
14 42.00 1500.00 179 507 0.740 10000.000 0.000 0.610 15000.000 0.000 1.165
15 45.00 1500.00 207 419 0.740 10000.000 0.000 0.610 15000.000 0.000 1.165
16 48.00 1500.00 213 391 0.740 10000.000 0.000 0.610 15000.000 0.000 1.165
17 51.00 1500.00 213 359 0.740 10000.000 0.000 0.610 15000.000 0.000 1.165
18 54.00 1500.00 209 345 0.740 10000.000 0.000 0.610 15000.000 0.000 1.165
19 57.00 1500.00 180 337 0.740 10000.000 0.000 0.610 15000.000 0.000 1.165
20 60.00 1500.00 211 371 0.740 10000.000 0.000 0.610 15000.000 0.000 1.165
21 63.00 1500.00 157 388 0.740 10000.000 0.000 0.610 15000.000 0.000 1.165
22 66.00 1500.00 150 462 0.740 10000.000 0.000 0.610 15000.000 0.000 1.165
23 69.00 1500.00 126 512 0.740 10000.000 0.000 0.610 15000.000 0.000 1.165
24 72.00 1500.00 128 544 0.740 10000.000 0.000 0.610 15000.000 0.000 1.165
25 75.00 1500.00 130 584 0.740 10000.000 0.000 0.610 15000.000 0.000 1.165
26 78.00 1500.00 127 657 0.740 10000.000 0.000 0.610 15000.000 0.000 1.165
27 81.00 1500.00 125 679 0.740 10000.000 0.000 0.610 15000.000 0.000 1.165
28 84.00 1500.00 115 728 0.740 10000.000 0.000 0.610 15000.000 0.000 1.165
29 87.00 1500.00 127 760 0.740 10000.000 0.000 0.610 15000.000 0.000 1.165
30 90.00 1500.00 143 813 0.740 10000.000 0.000 0.610 15000.000 0.000 1.165
31 93.00 1500.00 110 757 0.740 10000.000 0.000 0.610 15000.000 0.000 1.165
32 96.00 1500.00 147 696 0.740 10000.000 0.000 0.610 15000.000 0.000 1.165
33 99.00 1500.00 127 704 0.740 10000.000 0.000 0.610 15000.000 0.000 1.165
34 102.00 1500.00 165 642 0.740 10000.000 0.000 0.610 15000.000 0.000 1.165
35 105.00 1500.00 168 557 0.740 10000.000 0.000 0.610 15000.000 0.000 1.165
36 108.00 1500.00 158 543 0.740 10000.000 0.000 0.610 15000.000 0.000 1.165
37 111.00 1500.00 206 494 0.740 10000.000 0.000 0.610 15000.000 0.000 1.165
38 114.00 1500.00 218 472 0.740 10000.000 0.000 0.610 15000.000 0.000 1.165
39 117.00 1500.00 189 434 0.740 10000.000 0.000 0.610 15000.000 0.000 1.165
40 120.00 1500.00 230 421 0.740 10000.000 0.000 0.610 15000.000 0.000 1.165
41 123.00 1500.00 202 424 0.740 10000.000 0.000 0.610 15000.000 0.000 1.165
42 126.00 1500.00 217 360 0.740 10000.000 0.000 0.610 15000.000 0.000 1.165
43 129.00 1500.00 234 407 0.740 10000.000 0.000 0.610 15000.000 0.000 1.165
44 132.00 1500.00 231 426 0.740 10000.000 0.000 0.610 15000.000 0.000 1.165
45 135.00 1500.00 182 417 0.740 10000.000 0.000 0.610 15000.000 0.000 1.165
46 138.00 1500.00 184 460 0.740 10000.000 0.000 0.610 15000.000 0.000 1.165
47 141.00 1500.00 175 475 0.740 10000.000 0.000 0.610 15000.000 0.000 1.165
48 144.00 1500.00 186 490 0.740 10000.000 0.000 0.610 15000.000 0.000 1.165
49 147.00 1500.00 179 490 0.740 10000.000 0.000 0.610 15000.000 0.000 1.165
50 150.00 1500.00 146 510 0.740 10000.000 0.000 0.610 15000.000 0.000 1.165
51 153.00 1500.00 128 492 0.740 10000.000 0.000 0.610 15000.000 0.000 1.165
52 156.00 1500.00 153 428 0.740 10000.000 0.000 0.610 15000.000 0.000 1.165
53 159.00 1500.00 155 456 0.740 10000.000 0.000 0.610 15000.000 0.000 1.165
54 162.00 1500.00 157 460 0.740 10000.000 0.000 0.610 15000.000 0.000 1.165
55 165.00 1500.00 155 430 0.740 10000.000 0.000 0.610 15000.000 0.000 1.165
56 168.00 1500.00 151 426 0.740 10000.000 0.000 0.610 15000.000 0.000 1.165
57 171.00 1500.00 157 429 0.740 10000.000 0.000 0.610 15000.000 0.000 1.165
58 174.00 1500.00 130 409 0.740 10000.000 0.000 0.610 15000.000 0.000 1.165
59 177.00 1500.00 166 458 0.740 10000.000 0.000 0.610 15000.000 0.000 1.165
60 180.00 1500.00 152 440 0.740 10000.000 0.000 0.610 15000.000 0.000 1.165
61 183.00 1500.00 136 476 0.740 10000.000 0.000 0.610 15000.000 0.000 1.165
62 186.00 1500.00 135 493 0.740 10000.000 0.000 0.610 15000.000 0.000 1.165
63 189.00 1500.00 157 554 0.740 10000.000 0.000 0.610 15000.000 0.000 1.165
64 192.00 1500.00 158 699 0.740 10000.000 0.000 0.610 15000.000 0.000 1.165
65 195.00 1500.00 160 674 0.740 10000.000 0.000 0.610 15000.000 0.000 1.165
66 198.00 1500.00 156 690 0.740 10000.000 0.000 0.610 15000.000 0.000 1.165
67 201.00 1500.00 152 714 0.740 10000.000 0.000 0.610 15000.000 0.000 1.165
68 204.00 1500.00 145 797 0.740 10000.000 0.000 0.610 15000.000 0.000 1.165
69 207.00 1500.00 136 771 0.740 10000.000 0.000 0.610 15000.000 0.000 1.165
70 210.00 1500.00 130 764 0.740 10000.000 0.000 0.610 15000.000 0.000 1.165
71 213.00 1500.00 145 702 0.740 10000.000 0.000 0.610 15000.000 0.000 1.165
72 216.00 1500.00 141 767 0.740 10000.000 0.000 0.610 15000.000 0.000 1.165
73 219.00 1500.00 152 722 0.740 10000.000 0.000 0.610 15000.000 0.000 1.165
74 222.00 1500.00 155 618 0.740 10000.000 0.000 0.610 15000.000 0.000 1.165
75 225.00 1500.00 159 580 0.740 10000.000 0.000 0.610 15000.000 0.000 1.165
76 228.00 1500.00 188 541 0.740 10000.000 0.000 0.610 15000.000 0.000 1.165
77 231.00 1500.00 192 501 0.740 10000.000 0.000 0.610 15000.000 0.000 1.165
78 234.00 1500.00 218 385 0.740 10000.000 0.000 0.610 15000.000 0.000 1.165
79 237.00 1500.00 209 350 0.740 10000.000 0.000 0.610 15000.000 0.000 1.165
80 240.00 1500.00 220 272 0.740 10000.000 0.000 0.610 15000.000 0.000 1.165
81 243.00 1500.00 225 267 0.740 10000.000 0.000 0.610 15000.000 0.000 1.165
82 246.00 1500.00 226 234 0.740 10000.000 0.000 0.610 15000.000 0.000 1.165
83 249.00 1500.00 221 237 0.740 10000.000 0.000 0.610 15000.000 0.000 1.165
84 252.00 1500.00 198 293 0.740 10000.000 0.000 0.610 15000.000 0.000 1.165
85 255.00 1500.00 181 264 0.740 10000.000 0.000 0.610 15000.000 0.000 1.165
86 258.00 1500.00 176 321 0.740 10000.000 0.000 0.610 15000.000 0.000 1.165
87 261.00 1500.00 160 326 0.740 10000.000 0.000 0.610 15000.000 0.000 1.165
88 264.00 1500.00 156 406 0.740 10000.000 0.000 0.610 15000.000 0.000 1.165
89 267.00 1500.00 147 475 0.740 10000.000 0.000 0.610 15000.000 0.000 1.165
90 270.00 1500.00 129 595 0.740 10000.000 0.000 0.610 15000.000 0.000 1.165
91 273.00 1500.00 141 562 0.740 10000.000 0.000 0.610 15000.000 0.000 1.165
92 276.00 1500.00 144 707 0.740 10000.000 0.000 0.610 15000.000 0.000 1.165
93 279.00 1500.00 112 726 0.740 10000.000 0.000 0.610 15000.000 0.000 1.165
94 282.00 1500.00 128 806 0.740 10000.000 0.000 0.610 15000.000 0.000 1.165
95 285.00 1500.00 123 782 0.740 10000.000 0.000 0.610 15000.000 0.000 1.165
96 288.00 1500.00 152 786 0.740 10000.000 0.000 0.610 15000.000 0.000 1.165
97 291.00 1500.00 139 710 0.740 10000.000 0.000 0.610 15000.000 0.000 1.165
98 294.00 1500.00 151 816 0.740 10000.000 0.000 0.610 15000.000 0.000 1.165
99 297.00 1500.00 140 684 0.740 10000.000 0.000 0.610 15000.000 0.000 1.165
100 300.00 1500.00 171 706 0.740 10000.000 0.000 0.610 15000.000 0.000 1.165
101 303.00 1500.00 144 601 0.740 10000.000 0.000 0.610 15000.000 0.000 1.165
102 306.00 1500.00 157 562 0.740 10000.000 0.000 0.610 15000.000 0.000 1.165
103 309.00 1500.00 155 502 0.740 10000.000 0.000 0.610 15000.000 0.000 1.165
104 312.00 1500.00 160 501 0.740 10000.000 0.000 0.610 15000.000 0.000 1.165
105 315.00 1500.00 147 442 0.740 10000.000 0.000 0.610 15000.000 0.000 1.165
106 318.00 1500.00 132 441 0.740 10000.000 0.000 0.610 15000.000 0.000 1.165
107 321.00 1500.00 138 446 0.740 10000.000 0.000 0.610 15000.000 0.000 1.165
108 324.00 1500.00 162 432 0.740 10000.000 0.000 0.610 15000.000 0.000 1.165
109 327.00 1500.00 144 405 0.740 10000.000 0.000 0.610 15000.000 0.000 1.165
110 330.00 1500.00 147 439 0.740 10000.000 0.000 0.610 15000.000 0.000 1.165
111 333.00 1500.00 128 403 0.740 10000.000 0.000 0.610 15000.000 0.000 1.165
112 336.00 1500.00 155 455 0.740 10000.000 0.000 0.610 15000.000 0.000 1.165
113 339.00 1500.00 146 446 0.740 10000.000 0.000 0.610 15000.000 0.000 1.165
114 342.00 1500.00 161 442 0.740 10000.000 0.000 0.610 15000.000 0.000 1.165
115 345.00 1500.00 207 470 0.740 10000.000 0.000 0.610 15000.000 0.000 1.165
116 348.00 1500.00 214 503 0.740 10000.000 0.000 0.610 15000.000 0.000 1.165
117 351.00 1500.00 184 456 0.740 10000.000 0.000 0.610 15000.000 0.000 1.165
118 354.00 1500.00 213 509 0.740 10000.000 0.000 0.610 15000.000 0.000 1.165
119 357.00 1500.00 218 483 0.740 10000.000 0.000 0.610 15000.000 0.000 1.165
120 360.00 1500.00 172 490 0.740 10000.000 0.000 0.610 15000.000 0.000 1.165
121 363.00 1500.00 203 487 0.740 10000.000 0.000 0.610 15000.000 0.000 1.165
122 366.00 1500.00 207 447 0.740 10000.000 0.000 0.610 15000.000 0.000 1.165
123 369.00 1500.00 200 426 0.740 10000.000 0.000 0.610 15000.000 0.000 1.165
124 372.00 1500.00 208 420 0.740 10000.000 0.000 0.610 15000.000 0.000 1.165
125 375.00 1500.00 211 444 0.740 10000.000 0.000 0.610 15000.000 0.000 1.165
126 378.00 1500.00 167 417 0.740 10000.000 0.000 0.610 15000.000 0.000 1.165
127 381.00 1500.00 175 449 0.740 10000.000 0.000 0.610 15000.000 0.000 1.165
128 384.00 1500.00 160 490 0.740 10000.000 0.000 0.610 15000.000 0.000 1.165
129 387.00 1500.00 148 519 0.740 10000.000 0.000 0.610 15000.000 0.000 1.165
130 390.00 1500.00 164 558 0.740 10000.000 0.000 0.610 15000.000 0.000 1.165
131 393.00 1500.00 131 572 0.740 10000.000 0.000 0.610 15000.000 0.000 1.165
132 396.00 1500.00 142 662 0.740 10000.000 0.000 0.610 15000.000 0.000 1.165
133 399.00 1500.00 135 646 0.740 10000.000 0.000 0.610 15000.000 0.000 1.165
134 402.00 1500.00 147 741 0.740 10000.000 0.000 0.610 15000.000 0.000 1.165
135 405.00 1500.00 138 747 0.740 10000.000 0.000 0.610 15000.000 0.000 1.165
136 408.00 1500.00 138 808 0.740 10000.000 0.000 0.610 15000.000 0.000 1.165
137 411.00 1500.00 158 770 0.740 10000.000 0.000 0.610 15000.000 0.000 1.165
138 414.00 1500.00 142 748 0.740 10000.000 0.000 0.610 15000.000 0.000 1.165
139 417.00 1500.00 156 727 0.740 10000.000 0.000 0.610 15000.000 0.000 1.165
140 420.00 1500.00 131 678 0.740 10000.000 0.000 0.610 15000.000 0.000 1.165
141 423.00 1500.00 127 600 0.740 10000.000 0.000 0.610 15000.000 0.000 1.165
142 426.00 1500.00 161 567 0.740 10000.000 0.000 0.610 15000.000 0.000 1.165
143 429.00 1500.00 128 476 0.740 10000.000 0.000 0.610 15000.000 0.000 1.165
144 432.00 1500.00 146 456 0.740 10000.000 0.000 0.610 15000.000 0.000 1.165
