# BinNR microsec tot-time (s)  O-Beam H-beam AUX Ampl(V) f(Hz) phase(deg) chi(pos)
0 0.00 900.00 374 431 1 0.000 3.343 2000.000 1.362
1 25.00 900.00 362 405 1 0.000 3.343 2000.000 1.362
2 50.00 900.00 348 415 2 0.000 3.343 2000.000 1.362
3 75.00 900.00 329 619 1 0.000 3.343 2000.000 1.362
4 100.00 900.00 400 668 1 0.000 3.343 2000.000 1.362
5 125.00 900.00 455 798 4 0.000 3.343 2000.000 1.362
6 150.00 900.00 500 778 1 0.000 3.343 2000.000 1.362
7 175.00 900.00 421 769 1 0.000 3.343 2000.000 1.362
8 200.00 900.00 232 800 0 0.000 3.343 2000.000 1.362
9 225.00 900.00 136 804 1 0.000 3.343 2000.000 1.362
10 250.00 900.00 69 816 1 0.000 3.343 2000.000 1.362
11 275.00 900.00 78 696 2 0.000 3.343 2000.000 1.362
12 300.00 900.00 103 571 1 0.000 3.343 2000.000 1.362
13 325.00 900.00 83 430 0 0.000 3.343 2000.000 1.362
14 350.00 900.00 81 392 1 0.000 3.343 2000.000 1.362
15 375.00 900.00 108 455 0 0.000 3.343 2000.000 1.362
16 400.00 900.00 213 501 0 0.000 3.343 2000.000 1.362
17 425.00 900.00 391 545 4 0.000 3.343 2000.000 1.362
18 450.00 900.00 505 482 1 0.000 3.343 2000.000 1.362
19 475.00 900.00 466 533 0 0.000 3.343 2000.000 1.362
20 500.00 900.00 414 424 2 0.000 3.343 2000.000 1.362
21 525.00 900.00 363 386 3 0.000 3.343 2000.000 1.362
22 550.00 900.00 347 455 0 0.000 3.343 2000.000 1.362
23 575.00 900.00 304 565 4 0.000 3.343 2000.000 1.362
24 600.00 900.00 396 686 5 0.000 3.343 2000.000 1.362
25 625.00 900.00 464 814 0 0.000 3.343 2000.000 1.362
26 650.00 900.00 492 786 3 0.000 3.343 2000.000 1.362
27 675.00 900.00 377 791 2 0.000 3.343 2000.000 1.362
28 700.00 900.00 259 720 1 0.000 3.343 2000.000 1.362
29 725.00 900.00 123 834 4 0.000 3.343 2000.000 1.362
30 750.00 900.00 85 792 1 0.000 3.343 2000.000 1.362
31 775.00 900.00 85 696 1 0.000 3.343 2000.000 1.362
32 800.00 900.00 84 559 2 0.000 3.343 2000.000 1.362
33 825.00 900.00 75 427 3 0.000 3.343 2000.000 1.362
34 850.00 900.00 81 431 2 0.000 3.343 2000.000 1.362
35 875.00 900.00 128 434 3 0.000 3.343 2000.000 1.362
36 900.00 900.00 208 508 1 0.000 3.343 2000.000 1.362
37 925.00 900.00 361 571 1 0.000 3.343 2000.000 1.362
38 950.00 900.00 497 545 2 0.000 3.343 2000.000 1.362
39 975.00 900.00 481 520 1 0.000 3.343 2000.000 1.362
