# BinNR microsec tot-time (s)  O-Beam AUX Ampl(V) f(Hz) phase(deg) chi(pos)
0 0.00 1200.02 171 492 2.000 10000.000 0.000 -0.901
1 3.00 1200.02 324 1014 2.000 10000.000 0.000 -0.901
2 6.00 1200.02 339 1049 2.000 10000.000 0.000 -0.901
3 9.00 1200.02 355 1109 2.000 10000.000 0.000 -0.901
4 12.00 1200.02 389 1203 2.000 10000.000 0.000 -0.901
5 15.00 1200.02 392 1237 2.000 10000.000 0.000 -0.901
6 18.00 1200.02 456 1307 2.000 10000.000 0.000 -0.901
7 21.00 1200.02 417 1307 2.000 10000.000 0.000 -0.901
8 24.00 1200.02 419 1409 2.000 10000.000 0.000 -0.901
9 27.00 1200.02 458 1305 2.000 10000.000 0.000 -0.901
10 30.00 1200.02 405 1401 2.000 10000.000 0.000 -0.901
11 33.00 1200.02 451 1310 2.000 10000.000 0.000 -0.901
12 36.00 1200.02 444 1353 2.000 10000.000 0.000 -0.901
13 39.00 1200.02 400 1315 2.000 10000.000 0.000 -0.901
14 42.00 1200.02 435 1346 2.000 10000.000 0.000 -0.901
15 45.00 1200.02 411 1346 2.000 10000.000 0.000 -0.901
16 48.00 1200.02 414 1368 2.000 10000.000 0.000 -0.901
17 51.00 1200.02 427 1282 2.000 10000.000 0.000 -0.901
18 54.00 1200.02 370 1235 2.000 10000.000 0.000 -0.901
19 57.00 1200.02 351 1212 2.000 10000.000 0.000 -0.901
20 60.00 1200.02 329 1161 2.000 10000.000 0.000 -0.901
21 63.00 1200.02 310 1102 2.000 10000.000 0.000 -0.901
22 66.00 1200.02 288 1100 2.000 10000.000 0.000 -0.901
23 69.00 1200.02 258 939 2.000 10000.000 0.000 -0.901
24 72.00 1200.02 248 816 2.000 10000.000 0.000 -0.901
25 75.00 1200.02 241 814 2.000 10000.000 0.000 -0.901
26 78.00 1200.02 245 762 2.000 10000.000 0.000 -0.901
27 81.00 1200.02 224 720 2.000 10000.000 0.000 -0.901
28 84.00 1200.02 290 660 2.000 10000.000 0.000 -0.901
29 87.00 1200.02 264 609 2.000 10000.000 0.000 -0.901
30 90.00 1200.02 238 665 2.000 10000.000 0.000 -0.901
31 93.00 1200.02 280 652 2.000 10000.000 0.000 -0.901
32 96.00 1200.02 292 748 2.000 10000.000 0.000 -0.901
33 99.00 1200.02 319 803 2.000 10000.000 0.000 -0.901
34 102.00 1200.02 373 903 2.000 10000.000 0.000 -0.901
35 105.00 1200.02 374 984 2.000 10000.000 0.000 -0.901
36 108.00 1200.02 394 1020 2.000 10000.000 0.000 -0.901
37 111.00 1200.02 363 1105 2.000 10000.000 0.000 -0.901
38 114.00 1200.02 439 1243 2.000 10000.000 0.000 -0.901
39 117.00 1200.02 404 1292 2.000 10000.000 0.000 -0.901
40 120.00 1200.02 393 1349 2.000 10000.000 0.000 -0.901
41 123.00 1200.02 406 1279 2.000 10000.000 0.000 -0.901
42 126.00 1200.02 455 1351 2.000 10000.000 0.000 -0.901
43 129.00 1200.02 401 1366 2.000 10000.000 0.000 -0.901
44 132.00 1200.02 472 1368 2.000 10000.000 0.000 -0.901
45 135.00 1200.02 438 1386 2.000 10000.000 0.000 -0.901
46 138.00 1200.02 453 1373 2.000 10000.000 0.000 -0.901
47 141.00 1200.02 409 1370 2.000 10000.000 0.000 -0.901
48 144.00 1200.02 426 1347 2.000 10000.000 0.000 -0.901
49 147.00 1200.02 410 1344 2.000 10000.000 0.000 -0.901
50 150.00 1200.02 411 1357 2.000 10000.000 0.000 -0.901
51 153.00 1200.02 422 1299 2.000 10000.000 0.000 -0.901
52 156.00 1200.02 377 1376 2.000 10000.000 0.000 -0.901
53 159.00 1200.02 372 1154 2.000 10000.000 0.000 -0.901
54 162.00 1200.02 332 1156 2.000 10000.000 0.000 -0.901
55 165.00 1200.02 295 1037 2.000 10000.000 0.000 -0.901
56 168.00 1200.02 290 928 2.000 10000.000 0.000 -0.901
57 171.00 1200.02 257 870 2.000 10000.000 0.000 -0.901
58 174.00 1200.02 268 837 2.000 10000.000 0.000 -0.901
59 177.00 1200.02 271 764 2.000 10000.000 0.000 -0.901
60 180.00 1200.02 219 717 2.000 10000.000 0.000 -0.901
61 183.00 1200.02 249 640 2.000 10000.000 0.000 -0.901
62 186.00 1200.02 253 615 2.000 10000.000 0.000 -0.901
63 189.00 1200.02 251 634 2.000 10000.000 0.000 -0.901
64 192.00 1200.02 281 663 2.000 10000.000 0.000 -0.901
65 195.00 1200.02 300 652 2.000 10000.000 0.000 -0.901
66 198.00 1200.02 293 728 2.000 10000.000 0.000 -0.901
67 201.00 1200.02 275 780 2.000 10000.000 0.000 -0.901
68 204.00 1200.02 318 915 2.000 10000.000 0.000 -0.901
69 207.00 1200.02 338 968 2.000 10000.000 0.000 -0.901
70 210.00 1200.02 383 1030 2.000 10000.000 0.000 -0.901
71 213.00 1200.02 409 1133 2.000 10000.000 0.000 -0.901
72 216.00 1200.02 423 1333 2.000 10000.000 0.000 -0.901
73 219.00 1200.02 397 1214 2.000 10000.000 0.000 -0.901
74 222.00 1200.02 432 1336 2.000 10000.000 0.000 -0.901
75 225.00 1200.02 442 1355 2.000 10000.000 0.000 -0.901
76 228.00 1200.02 455 1329 2.000 10000.000 0.000 -0.901
77 231.00 1200.02 443 1307 2.000 10000.000 0.000 -0.901
78 234.00 1200.02 492 1348 2.000 10000.000 0.000 -0.901
79 237.00 1200.02 472 1310 2.000 10000.000 0.000 -0.901
80 240.00 1200.02 447 1378 2.000 10000.000 0.000 -0.901
81 243.00 1200.02 403 1358 2.000 10000.000 0.000 -0.901
82 246.00 1200.02 473 1371 2.000 10000.000 0.000 -0.901
83 249.00 1200.02 396 1253 2.000 10000.000 0.000 -0.901
84 252.00 1200.02 442 1254 2.000 10000.000 0.000 -0.901
85 255.00 1200.02 401 1264 2.000 10000.000 0.000 -0.901
86 258.00 1200.02 389 1224 2.000 10000.000 0.000 -0.901
87 261.00 1200.02 367 1131 2.000 10000.000 0.000 -0.901
88 264.00 1200.02 290 1042 2.000 10000.000 0.000 -0.901
89 267.00 1200.02 318 1012 2.000 10000.000 0.000 -0.901
90 270.00 1200.02 274 919 2.000 10000.000 0.000 -0.901
91 273.00 1200.02 281 898 2.000 10000.000 0.000 -0.901
92 276.00 1200.02 288 755 2.000 10000.000 0.000 -0.901
93 279.00 1200.02 231 711 2.000 10000.000 0.000 -0.901
94 282.00 1200.02 271 627 2.000 10000.000 0.000 -0.901
95 285.00 1200.02 249 649 2.000 10000.000 0.000 -0.901
96 288.00 1200.02 259 659 2.000 10000.000 0.000 -0.901
97 291.00 1200.02 233 641 2.000 10000.000 0.000 -0.901
98 294.00 1200.02 286 690 2.000 10000.000 0.000 -0.901
99 297.00 1200.02 259 759 2.000 10000.000 0.000 -0.901
100 300.00 1200.02 312 832 2.000 10000.000 0.000 -0.901
101 303.00 1200.02 287 776 2.000 10000.000 0.000 -0.901
