# BinNR microsec tot-time (s)  O-Beam AUX Ampl(V) f(Hz) phase(deg) chi(pos)
0 0.00 1200.01 92 185 2.000 10000.000 0.000 0.703
1 3.00 1200.01 207 354 2.000 10000.000 0.000 0.703
2 6.00 1200.01 214 438 2.000 10000.000 0.000 0.703
3 9.00 1200.01 228 463 2.000 10000.000 0.000 0.703
4 12.00 1200.01 239 564 2.000 10000.000 0.000 0.703
5 15.00 1200.01 255 617 2.000 10000.000 0.000 0.703
6 18.00 1200.01 248 722 2.000 10000.000 0.000 0.703
7 21.00 1200.01 273 810 2.000 10000.000 0.000 0.703
8 24.00 1200.01 297 903 2.000 10000.000 0.000 0.703
9 27.00 1200.01 308 962 2.000 10000.000 0.000 0.703
10 30.00 1200.01 317 975 2.000 10000.000 0.000 0.703
11 33.00 1200.01 293 997 2.000 10000.000 0.000 0.703
12 36.00 1200.01 273 961 2.000 10000.000 0.000 0.703
13 39.00 1200.01 236 956 2.000 10000.000 0.000 0.703
14 42.00 1200.01 294 899 2.000 10000.000 0.000 0.703
15 45.00 1200.01 243 824 2.000 10000.000 0.000 0.703
16 48.00 1200.01 229 767 2.000 10000.000 0.000 0.703
17 51.00 1200.01 185 739 2.000 10000.000 0.000 0.703
18 54.00 1200.01 170 633 2.000 10000.000 0.000 0.703
19 57.00 1200.01 193 561 2.000 10000.000 0.000 0.703
20 60.00 1200.01 154 473 2.000 10000.000 0.000 0.703
21 63.00 1200.01 157 445 2.000 10000.000 0.000 0.703
22 66.00 1200.01 106 362 2.000 10000.000 0.000 0.703
23 69.00 1200.01 155 318 2.000 10000.000 0.000 0.703
24 72.00 1200.01 112 254 2.000 10000.000 0.000 0.703
25 75.00 1200.01 141 226 2.000 10000.000 0.000 0.703
26 78.00 1200.01 139 250 2.000 10000.000 0.000 0.703
27 81.00 1200.01 132 210 2.000 10000.000 0.000 0.703
28 84.00 1200.01 151 197 2.000 10000.000 0.000 0.703
29 87.00 1200.01 133 199 2.000 10000.000 0.000 0.703
30 90.00 1200.01 153 199 2.000 10000.000 0.000 0.703
31 93.00 1200.01 163 216 2.000 10000.000 0.000 0.703
32 96.00 1200.01 173 235 2.000 10000.000 0.000 0.703
33 99.00 1200.01 167 210 2.000 10000.000 0.000 0.703
34 102.00 1200.01 157 275 2.000 10000.000 0.000 0.703
35 105.00 1200.01 193 325 2.000 10000.000 0.000 0.703
36 108.00 1200.01 211 415 2.000 10000.000 0.000 0.703
37 111.00 1200.01 224 455 2.000 10000.000 0.000 0.703
38 114.00 1200.01 224 580 2.000 10000.000 0.000 0.703
39 117.00 1200.01 257 590 2.000 10000.000 0.000 0.703
40 120.00 1200.01 294 724 2.000 10000.000 0.000 0.703
41 123.00 1200.01 282 776 2.000 10000.000 0.000 0.703
42 126.00 1200.01 309 850 2.000 10000.000 0.000 0.703
43 129.00 1200.01 314 911 2.000 10000.000 0.000 0.703
44 132.00 1200.01 316 917 2.000 10000.000 0.000 0.703
45 135.00 1200.01 312 974 2.000 10000.000 0.000 0.703
46 138.00 1200.01 276 924 2.000 10000.000 0.000 0.703
47 141.00 1200.01 262 941 2.000 10000.000 0.000 0.703
48 144.00 1200.01 299 880 2.000 10000.000 0.000 0.703
49 147.00 1200.01 226 868 2.000 10000.000 0.000 0.703
50 150.00 1200.01 218 815 2.000 10000.000 0.000 0.703
51 153.00 1200.01 210 700 2.000 10000.000 0.000 0.703
52 156.00 1200.01 194 666 2.000 10000.000 0.000 0.703
53 159.00 1200.01 163 584 2.000 10000.000 0.000 0.703
54 162.00 1200.01 146 520 2.000 10000.000 0.000 0.703
55 165.00 1200.01 153 412 2.000 10000.000 0.000 0.703
56 168.00 1200.01 149 335 2.000 10000.000 0.000 0.703
57 171.00 1200.01 148 297 2.000 10000.000 0.000 0.703
58 174.00 1200.01 122 252 2.000 10000.000 0.000 0.703
59 177.00 1200.01 129 241 2.000 10000.000 0.000 0.703
60 180.00 1200.01 140 224 2.000 10000.000 0.000 0.703
61 183.00 1200.01 135 195 2.000 10000.000 0.000 0.703
62 186.00 1200.01 133 207 2.000 10000.000 0.000 0.703
63 189.00 1200.01 116 234 2.000 10000.000 0.000 0.703
64 192.00 1200.01 140 178 2.000 10000.000 0.000 0.703
65 195.00 1200.01 137 193 2.000 10000.000 0.000 0.703
66 198.00 1200.01 158 199 2.000 10000.000 0.000 0.703
67 201.00 1200.01 194 250 2.000 10000.000 0.000 0.703
68 204.00 1200.01 185 322 2.000 10000.000 0.000 0.703
69 207.00 1200.01 181 366 2.000 10000.000 0.000 0.703
70 210.00 1200.01 211 444 2.000 10000.000 0.000 0.703
71 213.00 1200.01 223 500 2.000 10000.000 0.000 0.703
72 216.00 1200.01 241 595 2.000 10000.000 0.000 0.703
73 219.00 1200.01 256 692 2.000 10000.000 0.000 0.703
74 222.00 1200.01 269 815 2.000 10000.000 0.000 0.703
75 225.00 1200.01 295 826 2.000 10000.000 0.000 0.703
76 228.00 1200.01 310 963 2.000 10000.000 0.000 0.703
77 231.00 1200.01 294 824 2.000 10000.000 0.000 0.703
78 234.00 1200.01 289 944 2.000 10000.000 0.000 0.703
79 237.00 1200.01 314 985 2.000 10000.000 0.000 0.703
80 240.00 1200.01 289 923 2.000 10000.000 0.000 0.703
81 243.00 1200.01 276 969 2.000 10000.000 0.000 0.703
82 246.00 1200.01 270 917 2.000 10000.000 0.000 0.703
83 249.00 1200.01 255 816 2.000 10000.000 0.000 0.703
84 252.00 1200.01 217 791 2.000 10000.000 0.000 0.703
85 255.00 1200.01 206 609 2.000 10000.000 0.000 0.703
86 258.00 1200.01 196 602 2.000 10000.000 0.000 0.703
87 261.00 1200.01 203 482 2.000 10000.000 0.000 0.703
88 264.00 1200.01 182 454 2.000 10000.000 0.000 0.703
89 267.00 1200.01 137 367 2.000 10000.000 0.000 0.703
90 270.00 1200.01 129 333 2.000 10000.000 0.000 0.703
91 273.00 1200.01 139 242 2.000 10000.000 0.000 0.703
92 276.00 1200.01 124 212 2.000 10000.000 0.000 0.703
93 279.00 1200.01 119 229 2.000 10000.000 0.000 0.703
94 282.00 1200.01 130 195 2.000 10000.000 0.000 0.703
95 285.00 1200.01 137 209 2.000 10000.000 0.000 0.703
96 288.00 1200.01 150 194 2.000 10000.000 0.000 0.703
97 291.00 1200.01 142 190 2.000 10000.000 0.000 0.703
98 294.00 1200.01 152 210 2.000 10000.000 0.000 0.703
99 297.00 1200.01 150 238 2.000 10000.000 0.000 0.703
100 300.00 1200.01 133 244 2.000 10000.000 0.000 0.703
101 303.00 1200.01 154 251 2.000 10000.000 0.000 0.703
