# BinNR microsec tot-time (s)  O-Beam AUX Ampl(V) f(Hz) phase(deg) chi(pos)
0 0.00 1200.03 208 643 2.000 10000.000 0.000 -0.714
1 3.00 1200.03 412 1241 2.000 10000.000 0.000 -0.714
2 6.00 1200.03 439 1291 2.000 10000.000 0.000 -0.714
3 9.00 1200.03 419 1367 2.000 10000.000 0.000 -0.714
4 12.00 1200.03 444 1384 2.000 10000.000 0.000 -0.714
5 15.00 1200.03 382 1327 2.000 10000.000 0.000 -0.714
6 18.00 1200.03 489 1376 2.000 10000.000 0.000 -0.714
7 21.00 1200.03 426 1269 2.000 10000.000 0.000 -0.714
8 24.00 1200.03 457 1270 2.000 10000.000 0.000 -0.714
9 27.00 1200.03 465 1226 2.000 10000.000 0.000 -0.714
10 30.00 1200.03 458 1186 2.000 10000.000 0.000 -0.714
11 33.00 1200.03 457 1167 2.000 10000.000 0.000 -0.714
12 36.00 1200.03 434 1208 2.000 10000.000 0.000 -0.714
13 39.00 1200.03 445 1181 2.000 10000.000 0.000 -0.714
14 42.00 1200.03 467 1272 2.000 10000.000 0.000 -0.714
15 45.00 1200.03 481 1271 2.000 10000.000 0.000 -0.714
16 48.00 1200.03 427 1365 2.000 10000.000 0.000 -0.714
17 51.00 1200.03 460 1358 2.000 10000.000 0.000 -0.714
18 54.00 1200.03 450 1352 2.000 10000.000 0.000 -0.714
19 57.00 1200.03 435 1382 2.000 10000.000 0.000 -0.714
20 60.00 1200.03 421 1337 2.000 10000.000 0.000 -0.714
21 63.00 1200.03 405 1335 2.000 10000.000 0.000 -0.714
22 66.00 1200.03 393 1353 2.000 10000.000 0.000 -0.714
23 69.00 1200.03 396 1245 2.000 10000.000 0.000 -0.714
24 72.00 1200.03 347 1227 2.000 10000.000 0.000 -0.714
25 75.00 1200.03 353 1176 2.000 10000.000 0.000 -0.714
26 78.00 1200.03 354 1156 2.000 10000.000 0.000 -0.714
27 81.00 1200.03 361 1061 2.000 10000.000 0.000 -0.714
28 84.00 1200.03 372 1015 2.000 10000.000 0.000 -0.714
29 87.00 1200.03 359 999 2.000 10000.000 0.000 -0.714
30 90.00 1200.03 405 1038 2.000 10000.000 0.000 -0.714
31 93.00 1200.03 385 1091 2.000 10000.000 0.000 -0.714
32 96.00 1200.03 388 1099 2.000 10000.000 0.000 -0.714
33 99.00 1200.03 412 1155 2.000 10000.000 0.000 -0.714
34 102.00 1200.03 393 1235 2.000 10000.000 0.000 -0.714
35 105.00 1200.03 405 1294 2.000 10000.000 0.000 -0.714
36 108.00 1200.03 431 1310 2.000 10000.000 0.000 -0.714
37 111.00 1200.03 425 1378 2.000 10000.000 0.000 -0.714
38 114.00 1200.03 446 1440 2.000 10000.000 0.000 -0.714
39 117.00 1200.03 453 1355 2.000 10000.000 0.000 -0.714
40 120.00 1200.03 450 1341 2.000 10000.000 0.000 -0.714
41 123.00 1200.03 456 1317 2.000 10000.000 0.000 -0.714
42 126.00 1200.03 456 1311 2.000 10000.000 0.000 -0.714
43 129.00 1200.03 468 1259 2.000 10000.000 0.000 -0.714
44 132.00 1200.03 451 1217 2.000 10000.000 0.000 -0.714
45 135.00 1200.03 446 1220 2.000 10000.000 0.000 -0.714
46 138.00 1200.03 468 1230 2.000 10000.000 0.000 -0.714
47 141.00 1200.03 441 1205 2.000 10000.000 0.000 -0.714
48 144.00 1200.03 473 1237 2.000 10000.000 0.000 -0.714
49 147.00 1200.03 469 1225 2.000 10000.000 0.000 -0.714
50 150.00 1200.03 457 1337 2.000 10000.000 0.000 -0.714
51 153.00 1200.03 424 1321 2.000 10000.000 0.000 -0.714
52 156.00 1200.03 443 1321 2.000 10000.000 0.000 -0.714
53 159.00 1200.03 405 1392 2.000 10000.000 0.000 -0.714
54 162.00 1200.03 421 1355 2.000 10000.000 0.000 -0.714
55 165.00 1200.03 363 1300 2.000 10000.000 0.000 -0.714
56 168.00 1200.03 395 1278 2.000 10000.000 0.000 -0.714
57 171.00 1200.03 373 1201 2.000 10000.000 0.000 -0.714
58 174.00 1200.03 370 1190 2.000 10000.000 0.000 -0.714
59 177.00 1200.03 368 1127 2.000 10000.000 0.000 -0.714
60 180.00 1200.03 346 1140 2.000 10000.000 0.000 -0.714
61 183.00 1200.03 395 1069 2.000 10000.000 0.000 -0.714
62 186.00 1200.03 336 1094 2.000 10000.000 0.000 -0.714
63 189.00 1200.03 366 1068 2.000 10000.000 0.000 -0.714
64 192.00 1200.03 390 1083 2.000 10000.000 0.000 -0.714
65 195.00 1200.03 381 1015 2.000 10000.000 0.000 -0.714
66 198.00 1200.03 365 1138 2.000 10000.000 0.000 -0.714
67 201.00 1200.03 410 1197 2.000 10000.000 0.000 -0.714
68 204.00 1200.03 423 1265 2.000 10000.000 0.000 -0.714
69 207.00 1200.03 428 1268 2.000 10000.000 0.000 -0.714
70 210.00 1200.03 461 1334 2.000 10000.000 0.000 -0.714
71 213.00 1200.03 467 1343 2.000 10000.000 0.000 -0.714
72 216.00 1200.03 443 1317 2.000 10000.000 0.000 -0.714
73 219.00 1200.03 459 1257 2.000 10000.000 0.000 -0.714
74 222.00 1200.03 413 1344 2.000 10000.000 0.000 -0.714
75 225.00 1200.03 431 1313 2.000 10000.000 0.000 -0.714
76 228.00 1200.03 464 1293 2.000 10000.000 0.000 -0.714
77 231.00 1200.03 406 1241 2.000 10000.000 0.000 -0.714
78 234.00 1200.03 499 1231 2.000 10000.000 0.000 -0.714
79 237.00 1200.03 433 1240 2.000 10000.000 0.000 -0.714
80 240.00 1200.03 468 1170 2.000 10000.000 0.000 -0.714
81 243.00 1200.03 413 1248 2.000 10000.000 0.000 -0.714
82 246.00 1200.03 425 1343 2.000 10000.000 0.000 -0.714
83 249.00 1200.03 464 1289 2.000 10000.000 0.000 -0.714
84 252.00 1200.03 470 1291 2.000 10000.000 0.000 -0.714
85 255.00 1200.03 433 1334 2.000 10000.000 0.000 -0.714
86 258.00 1200.03 487 1397 2.000 10000.000 0.000 -0.714
87 261.00 1200.03 436 1298 2.000 10000.000 0.000 -0.714
88 264.00 1200.03 400 1299 2.000 10000.000 0.000 -0.714
89 267.00 1200.03 379 1304 2.000 10000.000 0.000 -0.714
90 270.00 1200.03 407 1240 2.000 10000.000 0.000 -0.714
91 273.00 1200.03 374 1187 2.000 10000.000 0.000 -0.714
92 276.00 1200.03 377 1188 2.000 10000.000 0.000 -0.714
93 279.00 1200.03 367 1141 2.000 10000.000 0.000 -0.714
94 282.00 1200.03 355 1050 2.000 10000.000 0.000 -0.714
95 285.00 1200.03 335 1013 2.000 10000.000 0.000 -0.714
96 288.00 1200.03 369 1056 2.000 10000.000 0.000 -0.714
97 291.00 1200.03 372 1048 2.000 10000.000 0.000 -0.714
98 294.00 1200.03 352 1073 2.000 10000.000 0.000 -0.714
99 297.00 1200.03 398 1094 2.000 10000.000 0.000 -0.714
100 300.00 1200.03 385 1207 2.000 10000.000 0.000 -0.714
101 303.00 1200.03 353 1087 2.000 10000.000 0.000 -0.714
