# BinNR microsec tot-time (s)  O-Beam AUX Ampl(V) f(Hz) phase(deg) chi(pos)
0 0.00 1200.01 209 627 2.000 10000.000 0.000 1.285
1 3.00 1200.01 423 1283 2.000 10000.000 0.000 1.285
2 6.00 1200.01 418 1326 2.000 10000.000 0.000 1.285
3 9.00 1200.01 438 1275 2.000 10000.000 0.000 1.285
4 12.00 1200.01 426 1311 2.000 10000.000 0.000 1.285
5 15.00 1200.01 482 1307 2.000 10000.000 0.000 1.285
6 18.00 1200.01 449 1379 2.000 10000.000 0.000 1.285
7 21.00 1200.01 419 1356 2.000 10000.000 0.000 1.285
8 24.00 1200.01 453 1315 2.000 10000.000 0.000 1.285
9 27.00 1200.01 402 1221 2.000 10000.000 0.000 1.285
10 30.00 1200.01 436 1226 2.000 10000.000 0.000 1.285
11 33.00 1200.01 385 1082 2.000 10000.000 0.000 1.285
12 36.00 1200.01 485 1227 2.000 10000.000 0.000 1.285
13 39.00 1200.01 431 1211 2.000 10000.000 0.000 1.285
14 42.00 1200.01 451 1333 2.000 10000.000 0.000 1.285
15 45.00 1200.01 454 1211 2.000 10000.000 0.000 1.285
16 48.00 1200.01 454 1232 2.000 10000.000 0.000 1.285
17 51.00 1200.01 451 1292 2.000 10000.000 0.000 1.285
18 54.00 1200.01 402 1328 2.000 10000.000 0.000 1.285
19 57.00 1200.01 424 1371 2.000 10000.000 0.000 1.285
20 60.00 1200.01 378 1377 2.000 10000.000 0.000 1.285
21 63.00 1200.01 381 1285 2.000 10000.000 0.000 1.285
22 66.00 1200.01 357 1246 2.000 10000.000 0.000 1.285
23 69.00 1200.01 367 1270 2.000 10000.000 0.000 1.285
24 72.00 1200.01 383 1209 2.000 10000.000 0.000 1.285
25 75.00 1200.01 354 1127 2.000 10000.000 0.000 1.285
26 78.00 1200.01 336 1089 2.000 10000.000 0.000 1.285
27 81.00 1200.01 342 1100 2.000 10000.000 0.000 1.285
28 84.00 1200.01 361 1110 2.000 10000.000 0.000 1.285
29 87.00 1200.01 373 1051 2.000 10000.000 0.000 1.285
30 90.00 1200.01 377 1034 2.000 10000.000 0.000 1.285
31 93.00 1200.01 344 1034 2.000 10000.000 0.000 1.285
32 96.00 1200.01 414 1128 2.000 10000.000 0.000 1.285
33 99.00 1200.01 435 1137 2.000 10000.000 0.000 1.285
34 102.00 1200.01 369 1239 2.000 10000.000 0.000 1.285
35 105.00 1200.01 402 1230 2.000 10000.000 0.000 1.285
36 108.00 1200.01 431 1223 2.000 10000.000 0.000 1.285
37 111.00 1200.01 475 1322 2.000 10000.000 0.000 1.285
38 114.00 1200.01 464 1326 2.000 10000.000 0.000 1.285
39 117.00 1200.01 431 1320 2.000 10000.000 0.000 1.285
40 120.00 1200.01 464 1306 2.000 10000.000 0.000 1.285
41 123.00 1200.01 466 1383 2.000 10000.000 0.000 1.285
42 126.00 1200.01 471 1274 2.000 10000.000 0.000 1.285
43 129.00 1200.01 429 1275 2.000 10000.000 0.000 1.285
44 132.00 1200.01 448 1233 2.000 10000.000 0.000 1.285
45 135.00 1200.01 453 1221 2.000 10000.000 0.000 1.285
46 138.00 1200.01 460 1227 2.000 10000.000 0.000 1.285
47 141.00 1200.01 437 1249 2.000 10000.000 0.000 1.285
48 144.00 1200.01 465 1236 2.000 10000.000 0.000 1.285
49 147.00 1200.01 468 1268 2.000 10000.000 0.000 1.285
50 150.00 1200.01 466 1353 2.000 10000.000 0.000 1.285
51 153.00 1200.01 414 1349 2.000 10000.000 0.000 1.285
52 156.00 1200.01 477 1324 2.000 10000.000 0.000 1.285
53 159.00 1200.01 412 1342 2.000 10000.000 0.000 1.285
54 162.00 1200.01 411 1337 2.000 10000.000 0.000 1.285
55 165.00 1200.01 418 1316 2.000 10000.000 0.000 1.285
56 168.00 1200.01 361 1289 2.000 10000.000 0.000 1.285
57 171.00 1200.01 340 1215 2.000 10000.000 0.000 1.285
58 174.00 1200.01 361 1163 2.000 10000.000 0.000 1.285
59 177.00 1200.01 354 1093 2.000 10000.000 0.000 1.285
60 180.00 1200.01 389 1073 2.000 10000.000 0.000 1.285
61 183.00 1200.01 403 1029 2.000 10000.000 0.000 1.285
62 186.00 1200.01 339 1025 2.000 10000.000 0.000 1.285
63 189.00 1200.01 374 1056 2.000 10000.000 0.000 1.285
64 192.00 1200.01 332 1010 2.000 10000.000 0.000 1.285
65 195.00 1200.01 371 1132 2.000 10000.000 0.000 1.285
66 198.00 1200.01 387 1141 2.000 10000.000 0.000 1.285
67 201.00 1200.01 398 1260 2.000 10000.000 0.000 1.285
68 204.00 1200.01 429 1216 2.000 10000.000 0.000 1.285
69 207.00 1200.01 413 1262 2.000 10000.000 0.000 1.285
70 210.00 1200.01 434 1378 2.000 10000.000 0.000 1.285
71 213.00 1200.01 435 1246 2.000 10000.000 0.000 1.285
72 216.00 1200.01 430 1315 2.000 10000.000 0.000 1.285
73 219.00 1200.01 425 1350 2.000 10000.000 0.000 1.285
74 222.00 1200.01 447 1342 2.000 10000.000 0.000 1.285
75 225.00 1200.01 424 1375 2.000 10000.000 0.000 1.285
76 228.00 1200.01 477 1202 2.000 10000.000 0.000 1.285
77 231.00 1200.01 459 1244 2.000 10000.000 0.000 1.285
78 234.00 1200.01 463 1163 2.000 10000.000 0.000 1.285
79 237.00 1200.01 459 1259 2.000 10000.000 0.000 1.285
80 240.00 1200.01 431 1276 2.000 10000.000 0.000 1.285
81 243.00 1200.01 442 1274 2.000 10000.000 0.000 1.285
82 246.00 1200.01 476 1319 2.000 10000.000 0.000 1.285
83 249.00 1200.01 428 1234 2.000 10000.000 0.000 1.285
84 252.00 1200.01 452 1311 2.000 10000.000 0.000 1.285
85 255.00 1200.01 427 1338 2.000 10000.000 0.000 1.285
86 258.00 1200.01 412 1355 2.000 10000.000 0.000 1.285
87 261.00 1200.01 437 1279 2.000 10000.000 0.000 1.285
88 264.00 1200.01 445 1418 2.000 10000.000 0.000 1.285
89 267.00 1200.01 422 1232 2.000 10000.000 0.000 1.285
90 270.00 1200.01 356 1168 2.000 10000.000 0.000 1.285
91 273.00 1200.01 406 1178 2.000 10000.000 0.000 1.285
92 276.00 1200.01 341 1114 2.000 10000.000 0.000 1.285
93 279.00 1200.01 334 1096 2.000 10000.000 0.000 1.285
94 282.00 1200.01 379 1020 2.000 10000.000 0.000 1.285
95 285.00 1200.01 329 1030 2.000 10000.000 0.000 1.285
96 288.00 1200.01 334 995 2.000 10000.000 0.000 1.285
97 291.00 1200.01 367 993 2.000 10000.000 0.000 1.285
98 294.00 1200.01 379 1061 2.000 10000.000 0.000 1.285
99 297.00 1200.01 406 1074 2.000 10000.000 0.000 1.285
100 300.00 1200.01 379 1160 2.000 10000.000 0.000 1.285
101 303.00 1200.01 315 1000 2.000 10000.000 0.000 1.285
