# BinNR microsec tot-time (s)  O-Beam AUX Ampl(V) f(Hz) phase(deg) chi(pos)
1 1.00 1200.00 315 1054 5.000 90000.000 0.000 1.505
2 2.00 1200.00 323 1158 5.000 90000.000 0.000 1.505
3 3.00 1200.00 298 1120 5.000 90000.000 0.000 1.505
4 4.00 1200.00 331 1045 5.000 90000.000 0.000 1.505
5 5.00 1200.00 306 1126 5.000 90000.000 0.000 1.505
6 6.00 1200.00 324 1162 5.000 90000.000 0.000 1.505
7 7.00 1200.00 337 1132 5.000 90000.000 0.000 1.505
8 8.00 1200.00 344 1104 5.000 90000.000 0.000 1.505
9 9.00 1200.00 316 1074 5.000 90000.000 0.000 1.505
10 10.00 1200.00 368 1060 5.000 90000.000 0.000 1.505
11 11.00 1200.00 309 1011 5.000 90000.000 0.000 1.505
12 12.00 1200.00 360 998 5.000 90000.000 0.000 1.505
13 13.00 1200.00 329 963 5.000 90000.000 0.000 1.505
14 14.00 1200.00 339 1012 5.000 90000.000 0.000 1.505
15 15.00 1200.00 304 976 5.000 90000.000 0.000 1.505
16 16.00 1200.00 364 1030 5.000 90000.000 0.000 1.505
17 17.00 1200.00 368 1027 5.000 90000.000 0.000 1.505
18 18.00 1200.00 344 1077 5.000 90000.000 0.000 1.505
19 19.00 1200.00 350 1014 5.000 90000.000 0.000 1.505
20 20.00 1200.00 327 1052 5.000 90000.000 0.000 1.505
21 21.00 1200.00 324 1007 5.000 90000.000 0.000 1.505
22 22.00 1200.00 351 1030 5.000 90000.000 0.000 1.505
23 23.00 1200.00 335 966 5.000 90000.000 0.000 1.505
24 24.00 1200.00 324 1029 5.000 90000.000 0.000 1.505
25 25.00 1200.00 324 955 5.000 90000.000 0.000 1.505
26 26.00 1200.00 338 976 5.000 90000.000 0.000 1.505
27 27.00 1200.00 329 1073 5.000 90000.000 0.000 1.505
28 28.00 1200.00 338 1087 5.000 90000.000 0.000 1.505
29 29.00 1200.00 340 1096 5.000 90000.000 0.000 1.505
30 30.00 1200.00 362 1134 5.000 90000.000 0.000 1.505
31 31.00 1200.00 366 997 5.000 90000.000 0.000 1.505
32 32.00 1200.00 339 1080 5.000 90000.000 0.000 1.505
33 33.00 1200.00 338 977 5.000 90000.000 0.000 1.505
34 34.00 1200.00 331 1009 5.000 90000.000 0.000 1.505
35 35.00 1200.00 316 926 5.000 90000.000 0.000 1.505
36 36.00 1200.00 338 1002 5.000 90000.000 0.000 1.505
37 37.00 1200.00 322 1003 5.000 90000.000 0.000 1.505
38 38.00 1200.00 369 1037 5.000 90000.000 0.000 1.505
39 39.00 1200.00 347 987 5.000 90000.000 0.000 1.505
40 40.00 1200.00 332 1083 5.000 90000.000 0.000 1.505
41 41.00 1200.00 334 1025 5.000 90000.000 0.000 1.505
42 42.00 1200.00 349 1078 5.000 90000.000 0.000 1.505
43 43.00 1200.00 329 1038 5.000 90000.000 0.000 1.505
44 44.00 1200.00 342 1037 5.000 90000.000 0.000 1.505
45 45.00 1200.00 344 921 5.000 90000.000 0.000 1.505
46 46.00 1200.00 333 1061 5.000 90000.000 0.000 1.505
47 47.00 1200.00 316 1010 5.000 90000.000 0.000 1.505
48 48.00 1200.00 339 1059 5.000 90000.000 0.000 1.505
49 49.00 1200.00 324 983 5.000 90000.000 0.000 1.505
50 50.00 1200.00 345 1088 5.000 90000.000 0.000 1.505
51 51.00 1200.00 293 1075 5.000 90000.000 0.000 1.505
52 52.00 1200.00 341 1110 5.000 90000.000 0.000 1.505
53 53.00 1200.00 341 1025 5.000 90000.000 0.000 1.505
54 54.00 1200.00 331 1081 5.000 90000.000 0.000 1.505
55 55.00 1200.00 328 989 5.000 90000.000 0.000 1.505
56 56.00 1200.00 355 1007 5.000 90000.000 0.000 1.505
57 57.00 1200.00 314 1001 5.000 90000.000 0.000 1.505
58 58.00 1200.00 317 1010 5.000 90000.000 0.000 1.505
59 59.00 1200.00 334 955 5.000 90000.000 0.000 1.505
60 60.00 1200.00 344 1007 5.000 90000.000 0.000 1.505
61 61.00 1200.00 316 1070 5.000 90000.000 0.000 1.505
62 62.00 1200.00 308 1127 5.000 90000.000 0.000 1.505
63 63.00 1200.00 338 1071 5.000 90000.000 0.000 1.505
64 64.00 1200.00 332 1122 5.000 90000.000 0.000 1.505
65 65.00 1200.00 274 1036 5.000 90000.000 0.000 1.505
66 66.00 1200.00 342 1051 5.000 90000.000 0.000 1.505
67 67.00 1200.00 323 964 5.000 90000.000 0.000 1.505
68 68.00 1200.00 322 982 5.000 90000.000 0.000 1.505
69 69.00 1200.00 324 946 5.000 90000.000 0.000 1.505
70 70.00 1200.00 336 1034 5.000 90000.000 0.000 1.505
71 71.00 1200.00 318 1014 5.000 90000.000 0.000 1.505
72 72.00 1200.00 311 1054 5.000 90000.000 0.000 1.505
73 73.00 1200.00 349 1019 5.000 90000.000 0.000 1.505
74 74.00 1200.00 387 1088 5.000 90000.000 0.000 1.505
75 75.00 1200.00 367 1081 5.000 90000.000 0.000 1.505
76 76.00 1200.00 349 1098 5.000 90000.000 0.000 1.505
77 77.00 1200.00 342 971 5.000 90000.000 0.000 1.505
78 78.00 1200.00 375 999 5.000 90000.000 0.000 1.505
79 79.00 1200.00 318 1032 5.000 90000.000 0.000 1.505
80 80.00 1200.00 359 1013 5.000 90000.000 0.000 1.505
81 81.00 1200.00 347 955 5.000 90000.000 0.000 1.505
82 82.00 1200.00 345 1075 5.000 90000.000 0.000 1.505
83 83.00 1200.00 340 1055 5.000 90000.000 0.000 1.505
84 84.00 1200.00 371 1088 5.000 90000.000 0.000 1.505
85 85.00 1200.00 353 1049 5.000 90000.000 0.000 1.505
86 86.00 1200.00 365 1140 5.000 90000.000 0.000 1.505
87 87.00 1200.00 360 1040 5.000 90000.000 0.000 1.505
88 88.00 1200.00 359 975 5.000 90000.000 0.000 1.505
89 89.00 1200.00 342 945 5.000 90000.000 0.000 1.505
90 90.00 1200.00 369 962 5.000 90000.000 0.000 1.505
91 91.00 1200.00 314 853 5.000 90000.000 0.000 1.505
92 92.00 1200.00 375 896 5.000 90000.000 0.000 1.505
93 93.00 1200.00 302 837 5.000 90000.000 0.000 1.505
94 94.00 1200.00 322 961 5.000 90000.000 0.000 1.505
95 95.00 1200.00 309 934 5.000 90000.000 0.000 1.505
96 96.00 1200.00 334 1028 5.000 90000.000 0.000 1.505
97 97.00 1200.00 341 1050 5.000 90000.000 0.000 1.505
98 98.00 1200.00 328 1113 5.000 90000.000 0.000 1.505
99 99.00 1200.00 304 1121 5.000 90000.000 0.000 1.505
100 100.00 1200.00 336 1227 5.000 90000.000 0.000 1.505
101 101.00 1200.00 336 1168 5.000 90000.000 0.000 1.505
102 102.00 1200.00 343 1125 5.000 90000.000 0.000 1.505
