# BinNR microsec tot-time (s)  O-Beam AUX Ampl(V) f(Hz) phase(deg) chi(pos)
1 1.00 1200.00 303 989 5.000 120000.000 0.000 1.505
2 2.00 1200.00 310 1059 5.000 120000.000 0.000 1.505
3 3.00 1200.00 330 1021 5.000 120000.000 0.000 1.505
4 4.00 1200.00 291 1060 5.000 120000.000 0.000 1.505
5 5.00 1200.00 311 936 5.000 120000.000 0.000 1.505
6 6.00 1200.00 298 947 5.000 120000.000 0.000 1.505
7 7.00 1200.00 289 890 5.000 120000.000 0.000 1.505
8 8.00 1200.00 288 1026 5.000 120000.000 0.000 1.505
9 9.00 1200.00 277 942 5.000 120000.000 0.000 1.505
10 10.00 1200.00 305 977 5.000 120000.000 0.000 1.505
11 11.00 1200.00 298 892 5.000 120000.000 0.000 1.505
12 12.00 1200.00 306 981 5.000 120000.000 0.000 1.505
13 13.00 1200.00 290 953 5.000 120000.000 0.000 1.505
14 14.00 1200.00 323 964 5.000 120000.000 0.000 1.505
15 15.00 1200.00 259 931 5.000 120000.000 0.000 1.505
16 16.00 1200.00 295 978 5.000 120000.000 0.000 1.505
17 17.00 1200.00 300 911 5.000 120000.000 0.000 1.505
18 18.00 1200.00 320 970 5.000 120000.000 0.000 1.505
19 19.00 1200.00 280 968 5.000 120000.000 0.000 1.505
20 20.00 1200.00 316 1017 5.000 120000.000 0.000 1.505
21 21.00 1200.00 320 958 5.000 120000.000 0.000 1.505
22 22.00 1200.00 352 950 5.000 120000.000 0.000 1.505
23 23.00 1200.00 339 889 5.000 120000.000 0.000 1.505
24 24.00 1200.00 333 922 5.000 120000.000 0.000 1.505
25 25.00 1200.00 298 942 5.000 120000.000 0.000 1.505
26 26.00 1200.00 266 982 5.000 120000.000 0.000 1.505
27 27.00 1200.00 287 925 5.000 120000.000 0.000 1.505
28 28.00 1200.00 318 967 5.000 120000.000 0.000 1.505
29 29.00 1200.00 283 942 5.000 120000.000 0.000 1.505
30 30.00 1200.00 328 937 5.000 120000.000 0.000 1.505
31 31.00 1200.00 324 913 5.000 120000.000 0.000 1.505
32 32.00 1200.00 306 978 5.000 120000.000 0.000 1.505
33 33.00 1200.00 312 945 5.000 120000.000 0.000 1.505
34 34.00 1200.00 289 998 5.000 120000.000 0.000 1.505
35 35.00 1200.00 319 943 5.000 120000.000 0.000 1.505
36 36.00 1200.00 333 1042 5.000 120000.000 0.000 1.505
37 37.00 1200.00 313 994 5.000 120000.000 0.000 1.505
38 38.00 1200.00 305 999 5.000 120000.000 0.000 1.505
39 39.00 1200.00 291 954 5.000 120000.000 0.000 1.505
40 40.00 1200.00 309 982 5.000 120000.000 0.000 1.505
41 41.00 1200.00 286 887 5.000 120000.000 0.000 1.505
42 42.00 1200.00 334 959 5.000 120000.000 0.000 1.505
43 43.00 1200.00 307 949 5.000 120000.000 0.000 1.505
44 44.00 1200.00 318 946 5.000 120000.000 0.000 1.505
45 45.00 1200.00 304 937 5.000 120000.000 0.000 1.505
46 46.00 1200.00 318 940 5.000 120000.000 0.000 1.505
47 47.00 1200.00 307 994 5.000 120000.000 0.000 1.505
48 48.00 1200.00 287 1005 5.000 120000.000 0.000 1.505
49 49.00 1200.00 267 911 5.000 120000.000 0.000 1.505
50 50.00 1200.00 311 979 5.000 120000.000 0.000 1.505
51 51.00 1200.00 293 995 5.000 120000.000 0.000 1.505
52 52.00 1200.00 320 931 5.000 120000.000 0.000 1.505
53 53.00 1200.00 270 925 5.000 120000.000 0.000 1.505
54 54.00 1200.00 291 1021 5.000 120000.000 0.000 1.505
55 55.00 1200.00 283 928 5.000 120000.000 0.000 1.505
56 56.00 1200.00 300 968 5.000 120000.000 0.000 1.505
57 57.00 1200.00 276 915 5.000 120000.000 0.000 1.505
58 58.00 1200.00 314 987 5.000 120000.000 0.000 1.505
59 59.00 1200.00 283 948 5.000 120000.000 0.000 1.505
60 60.00 1200.00 299 951 5.000 120000.000 0.000 1.505
61 61.00 1200.00 281 975 5.000 120000.000 0.000 1.505
62 62.00 1200.00 315 978 5.000 120000.000 0.000 1.505
63 63.00 1200.00 311 934 5.000 120000.000 0.000 1.505
64 64.00 1200.00 293 1013 5.000 120000.000 0.000 1.505
65 65.00 1200.00 296 969 5.000 120000.000 0.000 1.505
66 66.00 1200.00 296 1013 5.000 120000.000 0.000 1.505
67 67.00 1200.00 270 857 5.000 120000.000 0.000 1.505
68 68.00 1200.00 335 1002 5.000 120000.000 0.000 1.505
69 69.00 1200.00 296 948 5.000 120000.000 0.000 1.505
70 70.00 1200.00 291 1016 5.000 120000.000 0.000 1.505
71 71.00 1200.00 271 936 5.000 120000.000 0.000 1.505
72 72.00 1200.00 320 1004 5.000 120000.000 0.000 1.505
73 73.00 1200.00 297 962 5.000 120000.000 0.000 1.505
74 74.00 1200.00 328 970 5.000 120000.000 0.000 1.505
75 75.00 1200.00 300 923 5.000 120000.000 0.000 1.505
76 76.00 1200.00 337 950 5.000 120000.000 0.000 1.505
77 77.00 1200.00 295 948 5.000 120000.000 0.000 1.505
78 78.00 1200.00 286 988 5.000 120000.000 0.000 1.505
79 79.00 1200.00 319 985 5.000 120000.000 0.000 1.505
80 80.00 1200.00 334 1014 5.000 120000.000 0.000 1.505
81 81.00 1200.00 317 949 5.000 120000.000 0.000 1.505
82 82.00 1200.00 329 980 5.000 120000.000 0.000 1.505
83 83.00 1200.00 319 906 5.000 120000.000 0.000 1.505
84 84.00 1200.00 334 1028 5.000 120000.000 0.000 1.505
85 85.00 1200.00 333 945 5.000 120000.000 0.000 1.505
86 86.00 1200.00 332 957 5.000 120000.000 0.000 1.505
87 87.00 1200.00 307 919 5.000 120000.000 0.000 1.505
88 88.00 1200.00 319 980 5.000 120000.000 0.000 1.505
89 89.00 1200.00 313 973 5.000 120000.000 0.000 1.505
90 90.00 1200.00 312 899 5.000 120000.000 0.000 1.505
91 91.00 1200.00 311 872 5.000 120000.000 0.000 1.505
92 92.00 1200.00 321 919 5.000 120000.000 0.000 1.505
93 93.00 1200.00 304 860 5.000 120000.000 0.000 1.505
94 94.00 1200.00 331 839 5.000 120000.000 0.000 1.505
95 95.00 1200.00 291 889 5.000 120000.000 0.000 1.505
96 96.00 1200.00 325 1007 5.000 120000.000 0.000 1.505
97 97.00 1200.00 287 948 5.000 120000.000 0.000 1.505
98 98.00 1200.00 305 1012 5.000 120000.000 0.000 1.505
99 99.00 1200.00 293 959 5.000 120000.000 0.000 1.505
100 100.00 1200.00 303 1071 5.000 120000.000 0.000 1.505
101 101.00 1200.00 308 985 5.000 120000.000 0.000 1.505
102 102.00 1200.00 308 994 5.000 120000.000 0.000 1.505
