# BinNR microsec tot-time (s)  O-Beam AUX Ampl_1(V) f_1(Hz) phase_1(deg) Ampl_2(V) f_2(Hz) phase_2(deg) chi(pos)
0 0.00 1500.01 496 1180 0.000 0.000 0.000 2.050 10000.000 0.000 -1.000
1 3.00 1500.01 924 2441 0.000 0.000 0.000 2.050 10000.000 0.000 -1.000
2 6.00 1500.01 958 2405 0.000 0.000 0.000 2.050 10000.000 0.000 -1.000
3 9.00 1500.01 876 2302 0.000 0.000 0.000 2.050 10000.000 0.000 -1.000
4 12.00 1500.01 987 2423 0.000 0.000 0.000 2.050 10000.000 0.000 -1.000
5 15.00 1500.01 1011 2375 0.000 0.000 0.000 2.050 10000.000 0.000 -1.000
6 18.00 1500.01 948 2450 0.000 0.000 0.000 2.050 10000.000 0.000 -1.000
7 21.00 1500.01 924 2431 0.000 0.000 0.000 2.050 10000.000 0.000 -1.000
8 24.00 1500.01 933 2435 0.000 0.000 0.000 2.050 10000.000 0.000 -1.000
9 27.00 1500.01 970 2437 0.000 0.000 0.000 2.050 10000.000 0.000 -1.000
10 30.00 1500.01 912 2490 0.000 0.000 0.000 2.050 10000.000 0.000 -1.000
11 33.00 1500.01 941 2402 0.000 0.000 0.000 2.050 10000.000 0.000 -1.000
12 36.00 1500.01 979 2484 0.000 0.000 0.000 2.050 10000.000 0.000 -1.000
13 39.00 1500.01 939 2456 0.000 0.000 0.000 2.050 10000.000 0.000 -1.000
14 42.00 1500.01 978 2501 0.000 0.000 0.000 2.050 10000.000 0.000 -1.000
15 45.00 1500.01 969 2372 0.000 0.000 0.000 2.050 10000.000 0.000 -1.000
16 48.00 1500.01 916 2492 0.000 0.000 0.000 2.050 10000.000 0.000 -1.000
17 51.00 1500.01 928 2427 0.000 0.000 0.000 2.050 10000.000 0.000 -1.000
18 54.00 1500.01 959 2467 0.000 0.000 0.000 2.050 10000.000 0.000 -1.000
19 57.00 1500.01 923 2413 0.000 0.000 0.000 2.050 10000.000 0.000 -1.000
20 60.00 1500.01 946 2445 0.000 0.000 0.000 2.050 10000.000 0.000 -1.000
21 63.00 1500.01 914 2542 0.000 0.000 0.000 2.050 10000.000 0.000 -1.000
22 66.00 1500.01 914 2394 0.000 0.000 0.000 2.050 10000.000 0.000 -1.000
23 69.00 1500.01 980 2399 0.000 0.000 0.000 2.050 10000.000 0.000 -1.000
24 72.00 1500.01 900 2493 0.000 0.000 0.000 2.050 10000.000 0.000 -1.000
25 75.00 1500.01 972 2376 0.000 0.000 0.000 2.050 10000.000 0.000 -1.000
26 78.00 1500.01 922 2461 0.000 0.000 0.000 2.050 10000.000 0.000 -1.000
27 81.00 1500.01 952 2396 0.000 0.000 0.000 2.050 10000.000 0.000 -1.000
28 84.00 1500.01 945 2437 0.000 0.000 0.000 2.050 10000.000 0.000 -1.000
29 87.00 1500.01 907 2437 0.000 0.000 0.000 2.050 10000.000 0.000 -1.000
30 90.00 1500.01 1031 2506 0.000 0.000 0.000 2.050 10000.000 0.000 -1.000
31 93.00 1500.01 912 2480 0.000 0.000 0.000 2.050 10000.000 0.000 -1.000
32 96.00 1500.01 972 2420 0.000 0.000 0.000 2.050 10000.000 0.000 -1.000
33 99.00 1500.01 930 2423 0.000 0.000 0.000 2.050 10000.000 0.000 -1.000
34 102.00 1500.01 969 2470 0.000 0.000 0.000 2.050 10000.000 0.000 -1.000
35 105.00 1500.01 952 2393 0.000 0.000 0.000 2.050 10000.000 0.000 -1.000
36 108.00 1500.01 951 2420 0.000 0.000 0.000 2.050 10000.000 0.000 -1.000
37 111.00 1500.01 929 2422 0.000 0.000 0.000 2.050 10000.000 0.000 -1.000
38 114.00 1500.01 945 2420 0.000 0.000 0.000 2.050 10000.000 0.000 -1.000
39 117.00 1500.01 909 2489 0.000 0.000 0.000 2.050 10000.000 0.000 -1.000
40 120.00 1500.01 962 2466 0.000 0.000 0.000 2.050 10000.000 0.000 -1.000
41 123.00 1500.01 863 2332 0.000 0.000 0.000 2.050 10000.000 0.000 -1.000
42 126.00 1500.01 981 2473 0.000 0.000 0.000 2.050 10000.000 0.000 -1.000
43 129.00 1500.01 892 2450 0.000 0.000 0.000 2.050 10000.000 0.000 -1.000
44 132.00 1500.01 972 2483 0.000 0.000 0.000 2.050 10000.000 0.000 -1.000
45 135.00 1500.01 986 2408 0.000 0.000 0.000 2.050 10000.000 0.000 -1.000
46 138.00 1500.01 933 2419 0.000 0.000 0.000 2.050 10000.000 0.000 -1.000
47 141.00 1500.01 997 2440 0.000 0.000 0.000 2.050 10000.000 0.000 -1.000
48 144.00 1500.01 1010 2520 0.000 0.000 0.000 2.050 10000.000 0.000 -1.000
49 147.00 1500.01 897 2386 0.000 0.000 0.000 2.050 10000.000 0.000 -1.000
50 150.00 1500.01 1034 2468 0.000 0.000 0.000 2.050 10000.000 0.000 -1.000
51 153.00 1500.01 921 2369 0.000 0.000 0.000 2.050 10000.000 0.000 -1.000
52 156.00 1500.01 974 2548 0.000 0.000 0.000 2.050 10000.000 0.000 -1.000
53 159.00 1500.01 979 2436 0.000 0.000 0.000 2.050 10000.000 0.000 -1.000
54 162.00 1500.01 940 2464 0.000 0.000 0.000 2.050 10000.000 0.000 -1.000
55 165.00 1500.01 913 2436 0.000 0.000 0.000 2.050 10000.000 0.000 -1.000
56 168.00 1500.01 976 2461 0.000 0.000 0.000 2.050 10000.000 0.000 -1.000
57 171.00 1500.01 936 2491 0.000 0.000 0.000 2.050 10000.000 0.000 -1.000
58 174.00 1500.01 983 2470 0.000 0.000 0.000 2.050 10000.000 0.000 -1.000
59 177.00 1500.01 964 2431 0.000 0.000 0.000 2.050 10000.000 0.000 -1.000
60 180.00 1500.01 948 2416 0.000 0.000 0.000 2.050 10000.000 0.000 -1.000
61 183.00 1500.01 892 2455 0.000 0.000 0.000 2.050 10000.000 0.000 -1.000
62 186.00 1500.01 932 2466 0.000 0.000 0.000 2.050 10000.000 0.000 -1.000
63 189.00 1500.01 951 2425 0.000 0.000 0.000 2.050 10000.000 0.000 -1.000
64 192.00 1500.01 920 2461 0.000 0.000 0.000 2.050 10000.000 0.000 -1.000
65 195.00 1500.01 984 2426 0.000 0.000 0.000 2.050 10000.000 0.000 -1.000
66 198.00 1500.01 892 2385 0.000 0.000 0.000 2.050 10000.000 0.000 -1.000
67 201.00 1500.01 921 2367 0.000 0.000 0.000 2.050 10000.000 0.000 -1.000
68 204.00 1500.01 936 2383 0.000 0.000 0.000 2.050 10000.000 0.000 -1.000
69 207.00 1500.01 947 2416 0.000 0.000 0.000 2.050 10000.000 0.000 -1.000
70 210.00 1500.01 938 2486 0.000 0.000 0.000 2.050 10000.000 0.000 -1.000
71 213.00 1500.01 943 2450 0.000 0.000 0.000 2.050 10000.000 0.000 -1.000
72 216.00 1500.01 954 2533 0.000 0.000 0.000 2.050 10000.000 0.000 -1.000
73 219.00 1500.01 966 2538 0.000 0.000 0.000 2.050 10000.000 0.000 -1.000
74 222.00 1500.01 935 2443 0.000 0.000 0.000 2.050 10000.000 0.000 -1.000
75 225.00 1500.01 977 2413 0.000 0.000 0.000 2.050 10000.000 0.000 -1.000
76 228.00 1500.01 1015 2512 0.000 0.000 0.000 2.050 10000.000 0.000 -1.000
77 231.00 1500.01 954 2437 0.000 0.000 0.000 2.050 10000.000 0.000 -1.000
78 234.00 1500.01 914 2469 0.000 0.000 0.000 2.050 10000.000 0.000 -1.000
79 237.00 1500.01 909 2430 0.000 0.000 0.000 2.050 10000.000 0.000 -1.000
80 240.00 1500.01 934 2506 0.000 0.000 0.000 2.050 10000.000 0.000 -1.000
81 243.00 1500.01 897 2365 0.000 0.000 0.000 2.050 10000.000 0.000 -1.000
82 246.00 1500.01 1009 2466 0.000 0.000 0.000 2.050 10000.000 0.000 -1.000
83 249.00 1500.01 971 2488 0.000 0.000 0.000 2.050 10000.000 0.000 -1.000
84 252.00 1500.01 916 2499 0.000 0.000 0.000 2.050 10000.000 0.000 -1.000
85 255.00 1500.01 886 2458 0.000 0.000 0.000 2.050 10000.000 0.000 -1.000
86 258.00 1500.01 978 2476 0.000 0.000 0.000 2.050 10000.000 0.000 -1.000
87 261.00 1500.01 914 2358 0.000 0.000 0.000 2.050 10000.000 0.000 -1.000
88 264.00 1500.01 935 2497 0.000 0.000 0.000 2.050 10000.000 0.000 -1.000
89 267.00 1500.01 906 2417 0.000 0.000 0.000 2.050 10000.000 0.000 -1.000
90 270.00 1500.01 929 2544 0.000 0.000 0.000 2.050 10000.000 0.000 -1.000
91 273.00 1500.01 966 2514 0.000 0.000 0.000 2.050 10000.000 0.000 -1.000
92 276.00 1500.01 983 2448 0.000 0.000 0.000 2.050 10000.000 0.000 -1.000
93 279.00 1500.01 916 2403 0.000 0.000 0.000 2.050 10000.000 0.000 -1.000
94 282.00 1500.01 1009 2506 0.000 0.000 0.000 2.050 10000.000 0.000 -1.000
95 285.00 1500.01 978 2414 0.000 0.000 0.000 2.050 10000.000 0.000 -1.000
96 288.00 1500.01 954 2386 0.000 0.000 0.000 2.050 10000.000 0.000 -1.000
97 291.00 1500.01 975 2394 0.000 0.000 0.000 2.050 10000.000 0.000 -1.000
98 294.00 1500.01 888 2527 0.000 0.000 0.000 2.050 10000.000 0.000 -1.000
99 297.00 1500.01 999 2408 0.000 0.000 0.000 2.050 10000.000 0.000 -1.000
100 300.00 1500.01 961 2458 0.000 0.000 0.000 2.050 10000.000 0.000 -1.000
101 303.00 1500.01 882 2479 0.000 0.000 0.000 2.050 10000.000 0.000 -1.000
102 306.00 1500.01 963 2475 0.000 0.000 0.000 2.050 10000.000 0.000 -1.000
103 309.00 1500.01 966 2422 0.000 0.000 0.000 2.050 10000.000 0.000 -1.000
104 312.00 1500.01 962 2468 0.000 0.000 0.000 2.050 10000.000 0.000 -1.000
105 315.00 1500.01 1010 2379 0.000 0.000 0.000 2.050 10000.000 0.000 -1.000
106 318.00 1500.01 1011 2464 0.000 0.000 0.000 2.050 10000.000 0.000 -1.000
107 321.00 1500.01 894 2407 0.000 0.000 0.000 2.050 10000.000 0.000 -1.000
108 324.00 1500.01 943 2462 0.000 0.000 0.000 2.050 10000.000 0.000 -1.000
109 327.00 1500.01 975 2462 0.000 0.000 0.000 2.050 10000.000 0.000 -1.000
110 330.00 1500.01 971 2438 0.000 0.000 0.000 2.050 10000.000 0.000 -1.000
111 333.00 1500.01 952 2377 0.000 0.000 0.000 2.050 10000.000 0.000 -1.000
112 336.00 1500.01 947 2488 0.000 0.000 0.000 2.050 10000.000 0.000 -1.000
113 339.00 1500.01 929 2467 0.000 0.000 0.000 2.050 10000.000 0.000 -1.000
114 342.00 1500.01 945 2430 0.000 0.000 0.000 2.050 10000.000 0.000 -1.000
115 345.00 1500.01 883 2415 0.000 0.000 0.000 2.050 10000.000 0.000 -1.000
116 348.00 1500.01 1005 2524 0.000 0.000 0.000 2.050 10000.000 0.000 -1.000
117 351.00 1500.01 939 2509 0.000 0.000 0.000 2.050 10000.000 0.000 -1.000
118 354.00 1500.01 934 2482 0.000 0.000 0.000 2.050 10000.000 0.000 -1.000
119 357.00 1500.01 978 2433 0.000 0.000 0.000 2.050 10000.000 0.000 -1.000
120 360.00 1500.01 931 2623 0.000 0.000 0.000 2.050 10000.000 0.000 -1.000
121 363.00 1500.01 905 2457 0.000 0.000 0.000 2.050 10000.000 0.000 -1.000
122 366.00 1500.01 913 2394 0.000 0.000 0.000 2.050 10000.000 0.000 -1.000
123 369.00 1500.01 916 2362 0.000 0.000 0.000 2.050 10000.000 0.000 -1.000
124 372.00 1500.01 867 2482 0.000 0.000 0.000 2.050 10000.000 0.000 -1.000
125 375.00 1500.01 901 2505 0.000 0.000 0.000 2.050 10000.000 0.000 -1.000
126 378.00 1500.01 996 2450 0.000 0.000 0.000 2.050 10000.000 0.000 -1.000
127 381.00 1500.01 913 2347 0.000 0.000 0.000 2.050 10000.000 0.000 -1.000
128 384.00 1500.01 977 2443 0.000 0.000 0.000 2.050 10000.000 0.000 -1.000
129 387.00 1500.01 925 2401 0.000 0.000 0.000 2.050 10000.000 0.000 -1.000
130 390.00 1500.01 958 2485 0.000 0.000 0.000 2.050 10000.000 0.000 -1.000
131 393.00 1500.01 944 2464 0.000 0.000 0.000 2.050 10000.000 0.000 -1.000
132 396.00 1500.01 947 2512 0.000 0.000 0.000 2.050 10000.000 0.000 -1.000
133 399.00 1500.01 1003 2477 0.000 0.000 0.000 2.050 10000.000 0.000 -1.000
134 402.00 1500.01 953 2478 0.000 0.000 0.000 2.050 10000.000 0.000 -1.000
