# BinNR microsec tot-time (s)  O-Beam AUX Ampl_1(V) f_1(Hz) phase_1(deg) Ampl_2(V) f_2(Hz) phase_2(deg) chi(pos)
0 0.00 1500.00 480 1240 0.000 0.000 0.000 2.050 10000.000 0.000 0.505
1 3.00 1500.00 946 2346 0.000 0.000 0.000 2.050 10000.000 0.000 0.505
2 6.00 1500.00 965 2413 0.000 0.000 0.000 2.050 10000.000 0.000 0.505
3 9.00 1500.00 971 2499 0.000 0.000 0.000 2.050 10000.000 0.000 0.505
4 12.00 1500.00 899 2474 0.000 0.000 0.000 2.050 10000.000 0.000 0.505
5 15.00 1500.00 994 2433 0.000 0.000 0.000 2.050 10000.000 0.000 0.505
6 18.00 1500.00 936 2390 0.000 0.000 0.000 2.050 10000.000 0.000 0.505
7 21.00 1500.00 933 2485 0.000 0.000 0.000 2.050 10000.000 0.000 0.505
8 24.00 1500.00 970 2450 0.000 0.000 0.000 2.050 10000.000 0.000 0.505
9 27.00 1500.00 914 2409 0.000 0.000 0.000 2.050 10000.000 0.000 0.505
10 30.00 1500.00 1020 2473 0.000 0.000 0.000 2.050 10000.000 0.000 0.505
11 33.00 1500.00 942 2318 0.000 0.000 0.000 2.050 10000.000 0.000 0.505
12 36.00 1500.00 952 2557 0.000 0.000 0.000 2.050 10000.000 0.000 0.505
13 39.00 1500.00 939 2387 0.000 0.000 0.000 2.050 10000.000 0.000 0.505
14 42.00 1500.00 947 2530 0.000 0.000 0.000 2.050 10000.000 0.000 0.505
15 45.00 1500.00 949 2475 0.000 0.000 0.000 2.050 10000.000 0.000 0.505
16 48.00 1500.00 964 2377 0.000 0.000 0.000 2.050 10000.000 0.000 0.505
17 51.00 1500.00 905 2382 0.000 0.000 0.000 2.050 10000.000 0.000 0.505
18 54.00 1500.00 913 2546 0.000 0.000 0.000 2.050 10000.000 0.000 0.505
19 57.00 1500.00 936 2326 0.000 0.000 0.000 2.050 10000.000 0.000 0.505
20 60.00 1500.00 981 2485 0.000 0.000 0.000 2.050 10000.000 0.000 0.505
21 63.00 1500.00 921 2412 0.000 0.000 0.000 2.050 10000.000 0.000 0.505
22 66.00 1500.00 953 2392 0.000 0.000 0.000 2.050 10000.000 0.000 0.505
23 69.00 1500.00 901 2335 0.000 0.000 0.000 2.050 10000.000 0.000 0.505
24 72.00 1500.00 1011 2425 0.000 0.000 0.000 2.050 10000.000 0.000 0.505
25 75.00 1500.00 987 2391 0.000 0.000 0.000 2.050 10000.000 0.000 0.505
26 78.00 1500.00 920 2423 0.000 0.000 0.000 2.050 10000.000 0.000 0.505
27 81.00 1500.00 877 2461 0.000 0.000 0.000 2.050 10000.000 0.000 0.505
28 84.00 1500.00 896 2405 0.000 0.000 0.000 2.050 10000.000 0.000 0.505
29 87.00 1500.00 949 2316 0.000 0.000 0.000 2.050 10000.000 0.000 0.505
30 90.00 1500.00 962 2436 0.000 0.000 0.000 2.050 10000.000 0.000 0.505
31 93.00 1500.00 869 2332 0.000 0.000 0.000 2.050 10000.000 0.000 0.505
32 96.00 1500.00 922 2454 0.000 0.000 0.000 2.050 10000.000 0.000 0.505
33 99.00 1500.00 930 2330 0.000 0.000 0.000 2.050 10000.000 0.000 0.505
34 102.00 1500.00 949 2507 0.000 0.000 0.000 2.050 10000.000 0.000 0.505
35 105.00 1500.00 946 2266 0.000 0.000 0.000 2.050 10000.000 0.000 0.505
36 108.00 1500.00 975 2337 0.000 0.000 0.000 2.050 10000.000 0.000 0.505
37 111.00 1500.00 912 2349 0.000 0.000 0.000 2.050 10000.000 0.000 0.505
38 114.00 1500.00 980 2401 0.000 0.000 0.000 2.050 10000.000 0.000 0.505
39 117.00 1500.00 965 2345 0.000 0.000 0.000 2.050 10000.000 0.000 0.505
40 120.00 1500.00 955 2435 0.000 0.000 0.000 2.050 10000.000 0.000 0.505
41 123.00 1500.00 960 2366 0.000 0.000 0.000 2.050 10000.000 0.000 0.505
42 126.00 1500.00 926 2466 0.000 0.000 0.000 2.050 10000.000 0.000 0.505
43 129.00 1500.00 880 2336 0.000 0.000 0.000 2.050 10000.000 0.000 0.505
44 132.00 1500.00 917 2399 0.000 0.000 0.000 2.050 10000.000 0.000 0.505
45 135.00 1500.00 934 2440 0.000 0.000 0.000 2.050 10000.000 0.000 0.505
46 138.00 1500.00 926 2419 0.000 0.000 0.000 2.050 10000.000 0.000 0.505
47 141.00 1500.00 953 2360 0.000 0.000 0.000 2.050 10000.000 0.000 0.505
48 144.00 1500.00 929 2503 0.000 0.000 0.000 2.050 10000.000 0.000 0.505
49 147.00 1500.00 942 2267 0.000 0.000 0.000 2.050 10000.000 0.000 0.505
50 150.00 1500.00 965 2406 0.000 0.000 0.000 2.050 10000.000 0.000 0.505
51 153.00 1500.00 920 2455 0.000 0.000 0.000 2.050 10000.000 0.000 0.505
52 156.00 1500.00 935 2503 0.000 0.000 0.000 2.050 10000.000 0.000 0.505
53 159.00 1500.00 955 2340 0.000 0.000 0.000 2.050 10000.000 0.000 0.505
54 162.00 1500.00 923 2407 0.000 0.000 0.000 2.050 10000.000 0.000 0.505
55 165.00 1500.00 923 2358 0.000 0.000 0.000 2.050 10000.000 0.000 0.505
56 168.00 1500.00 946 2439 0.000 0.000 0.000 2.050 10000.000 0.000 0.505
57 171.00 1500.00 968 2447 0.000 0.000 0.000 2.050 10000.000 0.000 0.505
58 174.00 1500.00 901 2411 0.000 0.000 0.000 2.050 10000.000 0.000 0.505
59 177.00 1500.00 929 2393 0.000 0.000 0.000 2.050 10000.000 0.000 0.505
60 180.00 1500.00 892 2567 0.000 0.000 0.000 2.050 10000.000 0.000 0.505
61 183.00 1500.00 934 2352 0.000 0.000 0.000 2.050 10000.000 0.000 0.505
62 186.00 1500.00 936 2380 0.000 0.000 0.000 2.050 10000.000 0.000 0.505
63 189.00 1500.00 954 2451 0.000 0.000 0.000 2.050 10000.000 0.000 0.505
64 192.00 1500.00 935 2325 0.000 0.000 0.000 2.050 10000.000 0.000 0.505
65 195.00 1500.00 912 2374 0.000 0.000 0.000 2.050 10000.000 0.000 0.505
66 198.00 1500.00 930 2530 0.000 0.000 0.000 2.050 10000.000 0.000 0.505
67 201.00 1500.00 964 2436 0.000 0.000 0.000 2.050 10000.000 0.000 0.505
68 204.00 1500.00 936 2383 0.000 0.000 0.000 2.050 10000.000 0.000 0.505
69 207.00 1500.00 941 2363 0.000 0.000 0.000 2.050 10000.000 0.000 0.505
70 210.00 1500.00 910 2416 0.000 0.000 0.000 2.050 10000.000 0.000 0.505
71 213.00 1500.00 972 2352 0.000 0.000 0.000 2.050 10000.000 0.000 0.505
72 216.00 1500.00 917 2417 0.000 0.000 0.000 2.050 10000.000 0.000 0.505
73 219.00 1500.00 966 2392 0.000 0.000 0.000 2.050 10000.000 0.000 0.505
74 222.00 1500.00 971 2474 0.000 0.000 0.000 2.050 10000.000 0.000 0.505
75 225.00 1500.00 893 2462 0.000 0.000 0.000 2.050 10000.000 0.000 0.505
76 228.00 1500.00 961 2441 0.000 0.000 0.000 2.050 10000.000 0.000 0.505
77 231.00 1500.00 957 2378 0.000 0.000 0.000 2.050 10000.000 0.000 0.505
78 234.00 1500.00 914 2477 0.000 0.000 0.000 2.050 10000.000 0.000 0.505
79 237.00 1500.00 935 2412 0.000 0.000 0.000 2.050 10000.000 0.000 0.505
80 240.00 1500.00 994 2431 0.000 0.000 0.000 2.050 10000.000 0.000 0.505
81 243.00 1500.00 951 2420 0.000 0.000 0.000 2.050 10000.000 0.000 0.505
82 246.00 1500.00 942 2536 0.000 0.000 0.000 2.050 10000.000 0.000 0.505
83 249.00 1500.00 950 2426 0.000 0.000 0.000 2.050 10000.000 0.000 0.505
84 252.00 1500.00 991 2496 0.000 0.000 0.000 2.050 10000.000 0.000 0.505
85 255.00 1500.00 879 2366 0.000 0.000 0.000 2.050 10000.000 0.000 0.505
86 258.00 1500.00 947 2423 0.000 0.000 0.000 2.050 10000.000 0.000 0.505
87 261.00 1500.00 909 2360 0.000 0.000 0.000 2.050 10000.000 0.000 0.505
88 264.00 1500.00 970 2410 0.000 0.000 0.000 2.050 10000.000 0.000 0.505
89 267.00 1500.00 997 2353 0.000 0.000 0.000 2.050 10000.000 0.000 0.505
90 270.00 1500.00 971 2434 0.000 0.000 0.000 2.050 10000.000 0.000 0.505
91 273.00 1500.00 911 2444 0.000 0.000 0.000 2.050 10000.000 0.000 0.505
92 276.00 1500.00 919 2424 0.000 0.000 0.000 2.050 10000.000 0.000 0.505
93 279.00 1500.00 938 2378 0.000 0.000 0.000 2.050 10000.000 0.000 0.505
94 282.00 1500.00 1000 2438 0.000 0.000 0.000 2.050 10000.000 0.000 0.505
95 285.00 1500.00 905 2479 0.000 0.000 0.000 2.050 10000.000 0.000 0.505
96 288.00 1500.00 962 2339 0.000 0.000 0.000 2.050 10000.000 0.000 0.505
97 291.00 1500.00 939 2422 0.000 0.000 0.000 2.050 10000.000 0.000 0.505
98 294.00 1500.00 923 2449 0.000 0.000 0.000 2.050 10000.000 0.000 0.505
99 297.00 1500.00 980 2387 0.000 0.000 0.000 2.050 10000.000 0.000 0.505
100 300.00 1500.00 938 2478 0.000 0.000 0.000 2.050 10000.000 0.000 0.505
101 303.00 1500.00 997 2413 0.000 0.000 0.000 2.050 10000.000 0.000 0.505
102 306.00 1500.00 938 2477 0.000 0.000 0.000 2.050 10000.000 0.000 0.505
103 309.00 1500.00 909 2412 0.000 0.000 0.000 2.050 10000.000 0.000 0.505
104 312.00 1500.00 951 2412 0.000 0.000 0.000 2.050 10000.000 0.000 0.505
105 315.00 1500.00 970 2407 0.000 0.000 0.000 2.050 10000.000 0.000 0.505
106 318.00 1500.00 961 2438 0.000 0.000 0.000 2.050 10000.000 0.000 0.505
107 321.00 1500.00 954 2298 0.000 0.000 0.000 2.050 10000.000 0.000 0.505
108 324.00 1500.00 992 2395 0.000 0.000 0.000 2.050 10000.000 0.000 0.505
109 327.00 1500.00 851 2361 0.000 0.000 0.000 2.050 10000.000 0.000 0.505
110 330.00 1500.00 896 2394 0.000 0.000 0.000 2.050 10000.000 0.000 0.505
111 333.00 1500.00 955 2275 0.000 0.000 0.000 2.050 10000.000 0.000 0.505
112 336.00 1500.00 1007 2473 0.000 0.000 0.000 2.050 10000.000 0.000 0.505
113 339.00 1500.00 943 2404 0.000 0.000 0.000 2.050 10000.000 0.000 0.505
114 342.00 1500.00 961 2458 0.000 0.000 0.000 2.050 10000.000 0.000 0.505
115 345.00 1500.00 934 2383 0.000 0.000 0.000 2.050 10000.000 0.000 0.505
116 348.00 1500.00 966 2459 0.000 0.000 0.000 2.050 10000.000 0.000 0.505
117 351.00 1500.00 877 2366 0.000 0.000 0.000 2.050 10000.000 0.000 0.505
118 354.00 1500.00 1036 2419 0.000 0.000 0.000 2.050 10000.000 0.000 0.505
119 357.00 1500.00 918 2373 0.000 0.000 0.000 2.050 10000.000 0.000 0.505
120 360.00 1500.00 938 2412 0.000 0.000 0.000 2.050 10000.000 0.000 0.505
121 363.00 1500.00 904 2466 0.000 0.000 0.000 2.050 10000.000 0.000 0.505
122 366.00 1500.00 944 2449 0.000 0.000 0.000 2.050 10000.000 0.000 0.505
123 369.00 1500.00 915 2370 0.000 0.000 0.000 2.050 10000.000 0.000 0.505
124 372.00 1500.00 921 2423 0.000 0.000 0.000 2.050 10000.000 0.000 0.505
125 375.00 1500.00 1028 2351 0.000 0.000 0.000 2.050 10000.000 0.000 0.505
126 378.00 1500.00 963 2399 0.000 0.000 0.000 2.050 10000.000 0.000 0.505
127 381.00 1500.00 888 2414 0.000 0.000 0.000 2.050 10000.000 0.000 0.505
128 384.00 1500.00 953 2423 0.000 0.000 0.000 2.050 10000.000 0.000 0.505
129 387.00 1500.00 962 2423 0.000 0.000 0.000 2.050 10000.000 0.000 0.505
130 390.00 1500.00 971 2410 0.000 0.000 0.000 2.050 10000.000 0.000 0.505
131 393.00 1500.00 887 2411 0.000 0.000 0.000 2.050 10000.000 0.000 0.505
132 396.00 1500.00 901 2438 0.000 0.000 0.000 2.050 10000.000 0.000 0.505
133 399.00 1500.00 946 2459 0.000 0.000 0.000 2.050 10000.000 0.000 0.505
134 402.00 1500.00 971 2426 0.000 0.000 0.000 2.050 10000.000 0.000 0.505
