# BinNR microsec tot-time (s)  O-Beam AUX Ampl_1(V) f_1(Hz) phase_1(deg) Ampl_2(V) f_2(Hz) phase_2(deg) chi(pos)
0 0.00 1500.01 486 1188 0.000 0.000 0.000 2.050 10000.000 0.000 1.329
1 3.00 1500.01 891 2327 0.000 0.000 0.000 2.050 10000.000 0.000 1.329
2 6.00 1500.01 893 2347 0.000 0.000 0.000 2.050 10000.000 0.000 1.329
3 9.00 1500.01 974 2380 0.000 0.000 0.000 2.050 10000.000 0.000 1.329
4 12.00 1500.01 953 2483 0.000 0.000 0.000 2.050 10000.000 0.000 1.329
5 15.00 1500.01 877 2313 0.000 0.000 0.000 2.050 10000.000 0.000 1.329
6 18.00 1500.01 920 2321 0.000 0.000 0.000 2.050 10000.000 0.000 1.329
7 21.00 1500.01 939 2306 0.000 0.000 0.000 2.050 10000.000 0.000 1.329
8 24.00 1500.01 922 2382 0.000 0.000 0.000 2.050 10000.000 0.000 1.329
9 27.00 1500.01 925 2341 0.000 0.000 0.000 2.050 10000.000 0.000 1.329
10 30.00 1500.01 885 2335 0.000 0.000 0.000 2.050 10000.000 0.000 1.329
11 33.00 1500.01 909 2332 0.000 0.000 0.000 2.050 10000.000 0.000 1.329
12 36.00 1500.01 977 2360 0.000 0.000 0.000 2.050 10000.000 0.000 1.329
13 39.00 1500.01 926 2281 0.000 0.000 0.000 2.050 10000.000 0.000 1.329
14 42.00 1500.01 956 2254 0.000 0.000 0.000 2.050 10000.000 0.000 1.329
15 45.00 1500.01 886 2417 0.000 0.000 0.000 2.050 10000.000 0.000 1.329
16 48.00 1500.01 960 2319 0.000 0.000 0.000 2.050 10000.000 0.000 1.329
17 51.00 1500.01 919 2351 0.000 0.000 0.000 2.050 10000.000 0.000 1.329
18 54.00 1500.01 986 2288 0.000 0.000 0.000 2.050 10000.000 0.000 1.329
19 57.00 1500.01 909 2350 0.000 0.000 0.000 2.050 10000.000 0.000 1.329
20 60.00 1500.01 912 2292 0.000 0.000 0.000 2.050 10000.000 0.000 1.329
21 63.00 1500.01 906 2290 0.000 0.000 0.000 2.050 10000.000 0.000 1.329
22 66.00 1500.01 918 2428 0.000 0.000 0.000 2.050 10000.000 0.000 1.329
23 69.00 1500.01 886 2305 0.000 0.000 0.000 2.050 10000.000 0.000 1.329
24 72.00 1500.01 929 2333 0.000 0.000 0.000 2.050 10000.000 0.000 1.329
25 75.00 1500.01 898 2330 0.000 0.000 0.000 2.050 10000.000 0.000 1.329
26 78.00 1500.01 947 2322 0.000 0.000 0.000 2.050 10000.000 0.000 1.329
27 81.00 1500.01 951 2300 0.000 0.000 0.000 2.050 10000.000 0.000 1.329
28 84.00 1500.01 968 2332 0.000 0.000 0.000 2.050 10000.000 0.000 1.329
29 87.00 1500.01 874 2281 0.000 0.000 0.000 2.050 10000.000 0.000 1.329
30 90.00 1500.01 877 2352 0.000 0.000 0.000 2.050 10000.000 0.000 1.329
31 93.00 1500.01 892 2291 0.000 0.000 0.000 2.050 10000.000 0.000 1.329
32 96.00 1500.01 848 2398 0.000 0.000 0.000 2.050 10000.000 0.000 1.329
33 99.00 1500.01 963 2247 0.000 0.000 0.000 2.050 10000.000 0.000 1.329
34 102.00 1500.01 925 2376 0.000 0.000 0.000 2.050 10000.000 0.000 1.329
35 105.00 1500.01 909 2310 0.000 0.000 0.000 2.050 10000.000 0.000 1.329
36 108.00 1500.01 944 2346 0.000 0.000 0.000 2.050 10000.000 0.000 1.329
37 111.00 1500.01 891 2340 0.000 0.000 0.000 2.050 10000.000 0.000 1.329
38 114.00 1500.01 956 2382 0.000 0.000 0.000 2.050 10000.000 0.000 1.329
39 117.00 1500.01 978 2352 0.000 0.000 0.000 2.050 10000.000 0.000 1.329
40 120.00 1500.01 953 2316 0.000 0.000 0.000 2.050 10000.000 0.000 1.329
41 123.00 1500.01 971 2312 0.000 0.000 0.000 2.050 10000.000 0.000 1.329
42 126.00 1500.01 913 2398 0.000 0.000 0.000 2.050 10000.000 0.000 1.329
43 129.00 1500.01 937 2312 0.000 0.000 0.000 2.050 10000.000 0.000 1.329
44 132.00 1500.01 965 2300 0.000 0.000 0.000 2.050 10000.000 0.000 1.329
45 135.00 1500.01 920 2410 0.000 0.000 0.000 2.050 10000.000 0.000 1.329
46 138.00 1500.01 910 2327 0.000 0.000 0.000 2.050 10000.000 0.000 1.329
47 141.00 1500.01 927 2330 0.000 0.000 0.000 2.050 10000.000 0.000 1.329
48 144.00 1500.01 912 2406 0.000 0.000 0.000 2.050 10000.000 0.000 1.329
49 147.00 1500.01 900 2374 0.000 0.000 0.000 2.050 10000.000 0.000 1.329
50 150.00 1500.01 968 2320 0.000 0.000 0.000 2.050 10000.000 0.000 1.329
51 153.00 1500.01 917 2413 0.000 0.000 0.000 2.050 10000.000 0.000 1.329
52 156.00 1500.01 941 2363 0.000 0.000 0.000 2.050 10000.000 0.000 1.329
53 159.00 1500.01 909 2369 0.000 0.000 0.000 2.050 10000.000 0.000 1.329
54 162.00 1500.01 936 2396 0.000 0.000 0.000 2.050 10000.000 0.000 1.329
55 165.00 1500.01 859 2366 0.000 0.000 0.000 2.050 10000.000 0.000 1.329
56 168.00 1500.01 968 2361 0.000 0.000 0.000 2.050 10000.000 0.000 1.329
57 171.00 1500.01 914 2304 0.000 0.000 0.000 2.050 10000.000 0.000 1.329
58 174.00 1500.01 926 2348 0.000 0.000 0.000 2.050 10000.000 0.000 1.329
59 177.00 1500.01 944 2308 0.000 0.000 0.000 2.050 10000.000 0.000 1.329
60 180.00 1500.01 938 2412 0.000 0.000 0.000 2.050 10000.000 0.000 1.329
61 183.00 1500.01 913 2321 0.000 0.000 0.000 2.050 10000.000 0.000 1.329
62 186.00 1500.01 920 2377 0.000 0.000 0.000 2.050 10000.000 0.000 1.329
63 189.00 1500.01 912 2365 0.000 0.000 0.000 2.050 10000.000 0.000 1.329
64 192.00 1500.01 897 2318 0.000 0.000 0.000 2.050 10000.000 0.000 1.329
65 195.00 1500.01 944 2313 0.000 0.000 0.000 2.050 10000.000 0.000 1.329
66 198.00 1500.01 907 2302 0.000 0.000 0.000 2.050 10000.000 0.000 1.329
67 201.00 1500.01 947 2317 0.000 0.000 0.000 2.050 10000.000 0.000 1.329
68 204.00 1500.01 906 2336 0.000 0.000 0.000 2.050 10000.000 0.000 1.329
69 207.00 1500.01 900 2382 0.000 0.000 0.000 2.050 10000.000 0.000 1.329
70 210.00 1500.01 933 2384 0.000 0.000 0.000 2.050 10000.000 0.000 1.329
71 213.00 1500.01 947 2336 0.000 0.000 0.000 2.050 10000.000 0.000 1.329
72 216.00 1500.01 905 2325 0.000 0.000 0.000 2.050 10000.000 0.000 1.329
73 219.00 1500.01 924 2336 0.000 0.000 0.000 2.050 10000.000 0.000 1.329
74 222.00 1500.01 897 2336 0.000 0.000 0.000 2.050 10000.000 0.000 1.329
75 225.00 1500.01 857 2295 0.000 0.000 0.000 2.050 10000.000 0.000 1.329
76 228.00 1500.01 909 2360 0.000 0.000 0.000 2.050 10000.000 0.000 1.329
77 231.00 1500.01 898 2308 0.000 0.000 0.000 2.050 10000.000 0.000 1.329
78 234.00 1500.01 934 2321 0.000 0.000 0.000 2.050 10000.000 0.000 1.329
79 237.00 1500.01 941 2300 0.000 0.000 0.000 2.050 10000.000 0.000 1.329
80 240.00 1500.01 972 2370 0.000 0.000 0.000 2.050 10000.000 0.000 1.329
81 243.00 1500.01 947 2229 0.000 0.000 0.000 2.050 10000.000 0.000 1.329
82 246.00 1500.01 946 2364 0.000 0.000 0.000 2.050 10000.000 0.000 1.329
83 249.00 1500.01 837 2329 0.000 0.000 0.000 2.050 10000.000 0.000 1.329
84 252.00 1500.01 925 2349 0.000 0.000 0.000 2.050 10000.000 0.000 1.329
85 255.00 1500.01 962 2280 0.000 0.000 0.000 2.050 10000.000 0.000 1.329
86 258.00 1500.01 923 2343 0.000 0.000 0.000 2.050 10000.000 0.000 1.329
87 261.00 1500.01 884 2301 0.000 0.000 0.000 2.050 10000.000 0.000 1.329
88 264.00 1500.01 957 2353 0.000 0.000 0.000 2.050 10000.000 0.000 1.329
89 267.00 1500.01 910 2382 0.000 0.000 0.000 2.050 10000.000 0.000 1.329
90 270.00 1500.01 916 2362 0.000 0.000 0.000 2.050 10000.000 0.000 1.329
91 273.00 1500.01 842 2213 0.000 0.000 0.000 2.050 10000.000 0.000 1.329
92 276.00 1500.01 928 2295 0.000 0.000 0.000 2.050 10000.000 0.000 1.329
93 279.00 1500.01 923 2284 0.000 0.000 0.000 2.050 10000.000 0.000 1.329
94 282.00 1500.01 904 2339 0.000 0.000 0.000 2.050 10000.000 0.000 1.329
95 285.00 1500.01 872 2272 0.000 0.000 0.000 2.050 10000.000 0.000 1.329
96 288.00 1500.01 947 2384 0.000 0.000 0.000 2.050 10000.000 0.000 1.329
97 291.00 1500.01 911 2352 0.000 0.000 0.000 2.050 10000.000 0.000 1.329
98 294.00 1500.01 977 2377 0.000 0.000 0.000 2.050 10000.000 0.000 1.329
99 297.00 1500.01 945 2345 0.000 0.000 0.000 2.050 10000.000 0.000 1.329
100 300.00 1500.01 902 2380 0.000 0.000 0.000 2.050 10000.000 0.000 1.329
101 303.00 1500.01 933 2312 0.000 0.000 0.000 2.050 10000.000 0.000 1.329
102 306.00 1500.01 887 2373 0.000 0.000 0.000 2.050 10000.000 0.000 1.329
103 309.00 1500.01 905 2314 0.000 0.000 0.000 2.050 10000.000 0.000 1.329
104 312.00 1500.01 947 2369 0.000 0.000 0.000 2.050 10000.000 0.000 1.329
105 315.00 1500.01 916 2329 0.000 0.000 0.000 2.050 10000.000 0.000 1.329
106 318.00 1500.01 952 2371 0.000 0.000 0.000 2.050 10000.000 0.000 1.329
107 321.00 1500.01 932 2276 0.000 0.000 0.000 2.050 10000.000 0.000 1.329
108 324.00 1500.01 955 2331 0.000 0.000 0.000 2.050 10000.000 0.000 1.329
109 327.00 1500.01 851 2349 0.000 0.000 0.000 2.050 10000.000 0.000 1.329
110 330.00 1500.01 930 2373 0.000 0.000 0.000 2.050 10000.000 0.000 1.329
111 333.00 1500.01 930 2288 0.000 0.000 0.000 2.050 10000.000 0.000 1.329
112 336.00 1500.01 946 2321 0.000 0.000 0.000 2.050 10000.000 0.000 1.329
113 339.00 1500.01 869 2353 0.000 0.000 0.000 2.050 10000.000 0.000 1.329
114 342.00 1500.01 915 2336 0.000 0.000 0.000 2.050 10000.000 0.000 1.329
115 345.00 1500.01 895 2309 0.000 0.000 0.000 2.050 10000.000 0.000 1.329
116 348.00 1500.01 891 2332 0.000 0.000 0.000 2.050 10000.000 0.000 1.329
117 351.00 1500.01 927 2370 0.000 0.000 0.000 2.050 10000.000 0.000 1.329
118 354.00 1500.01 940 2399 0.000 0.000 0.000 2.050 10000.000 0.000 1.329
119 357.00 1500.01 923 2322 0.000 0.000 0.000 2.050 10000.000 0.000 1.329
120 360.00 1500.01 986 2349 0.000 0.000 0.000 2.050 10000.000 0.000 1.329
121 363.00 1500.01 859 2356 0.000 0.000 0.000 2.050 10000.000 0.000 1.329
122 366.00 1500.01 931 2398 0.000 0.000 0.000 2.050 10000.000 0.000 1.329
123 369.00 1500.01 909 2238 0.000 0.000 0.000 2.050 10000.000 0.000 1.329
124 372.00 1500.01 963 2340 0.000 0.000 0.000 2.050 10000.000 0.000 1.329
125 375.00 1500.01 880 2349 0.000 0.000 0.000 2.050 10000.000 0.000 1.329
126 378.00 1500.01 911 2361 0.000 0.000 0.000 2.050 10000.000 0.000 1.329
127 381.00 1500.01 910 2364 0.000 0.000 0.000 2.050 10000.000 0.000 1.329
128 384.00 1500.01 948 2365 0.000 0.000 0.000 2.050 10000.000 0.000 1.329
129 387.00 1500.01 986 2469 0.000 0.000 0.000 2.050 10000.000 0.000 1.329
130 390.00 1500.01 951 2372 0.000 0.000 0.000 2.050 10000.000 0.000 1.329
131 393.00 1500.01 834 2353 0.000 0.000 0.000 2.050 10000.000 0.000 1.329
132 396.00 1500.01 935 2330 0.000 0.000 0.000 2.050 10000.000 0.000 1.329
133 399.00 1500.01 915 2327 0.000 0.000 0.000 2.050 10000.000 0.000 1.329
134 402.00 1500.01 913 2357 0.000 0.000 0.000 2.050 10000.000 0.000 1.329
