# BinNR microsec tot-time (s)  O-Beam AUX Ampl_1(V) f_1(Hz) phase_1(deg) Ampl_2(V) f_2(Hz) phase_2(deg) chi(pos)
0 0.00 1500.04 493 1253 0.000 0.000 0.000 2.050 10000.000 0.000 0.154
1 3.00 1500.04 959 2369 0.000 0.000 0.000 2.050 10000.000 0.000 0.154
2 6.00 1500.04 926 2439 0.000 0.000 0.000 2.050 10000.000 0.000 0.154
3 9.00 1500.04 1008 2425 0.000 0.000 0.000 2.050 10000.000 0.000 0.154
4 12.00 1500.04 899 2525 0.000 0.000 0.000 2.050 10000.000 0.000 0.154
5 15.00 1500.04 931 2414 0.000 0.000 0.000 2.050 10000.000 0.000 0.154
6 18.00 1500.04 961 2330 0.000 0.000 0.000 2.050 10000.000 0.000 0.154
7 21.00 1500.04 914 2321 0.000 0.000 0.000 2.050 10000.000 0.000 0.154
8 24.00 1500.04 895 2450 0.000 0.000 0.000 2.050 10000.000 0.000 0.154
9 27.00 1500.04 989 2336 0.000 0.000 0.000 2.050 10000.000 0.000 0.154
10 30.00 1500.04 905 2426 0.000 0.000 0.000 2.050 10000.000 0.000 0.154
11 33.00 1500.04 920 2297 0.000 0.000 0.000 2.050 10000.000 0.000 0.154
12 36.00 1500.04 918 2372 0.000 0.000 0.000 2.050 10000.000 0.000 0.154
13 39.00 1500.04 865 2338 0.000 0.000 0.000 2.050 10000.000 0.000 0.154
14 42.00 1500.04 921 2335 0.000 0.000 0.000 2.050 10000.000 0.000 0.154
15 45.00 1500.04 950 2409 0.000 0.000 0.000 2.050 10000.000 0.000 0.154
16 48.00 1500.04 939 2514 0.000 0.000 0.000 2.050 10000.000 0.000 0.154
17 51.00 1500.04 938 2326 0.000 0.000 0.000 2.050 10000.000 0.000 0.154
18 54.00 1500.04 974 2351 0.000 0.000 0.000 2.050 10000.000 0.000 0.154
19 57.00 1500.04 918 2378 0.000 0.000 0.000 2.050 10000.000 0.000 0.154
20 60.00 1500.04 890 2393 0.000 0.000 0.000 2.050 10000.000 0.000 0.154
21 63.00 1500.04 921 2359 0.000 0.000 0.000 2.050 10000.000 0.000 0.154
22 66.00 1500.04 1004 2432 0.000 0.000 0.000 2.050 10000.000 0.000 0.154
23 69.00 1500.04 885 2426 0.000 0.000 0.000 2.050 10000.000 0.000 0.154
24 72.00 1500.04 937 2394 0.000 0.000 0.000 2.050 10000.000 0.000 0.154
25 75.00 1500.04 931 2386 0.000 0.000 0.000 2.050 10000.000 0.000 0.154
26 78.00 1500.04 948 2327 0.000 0.000 0.000 2.050 10000.000 0.000 0.154
27 81.00 1500.04 993 2462 0.000 0.000 0.000 2.050 10000.000 0.000 0.154
28 84.00 1500.04 935 2393 0.000 0.000 0.000 2.050 10000.000 0.000 0.154
29 87.00 1500.04 869 2398 0.000 0.000 0.000 2.050 10000.000 0.000 0.154
30 90.00 1500.04 933 2450 0.000 0.000 0.000 2.050 10000.000 0.000 0.154
31 93.00 1500.04 957 2351 0.000 0.000 0.000 2.050 10000.000 0.000 0.154
32 96.00 1500.04 887 2465 0.000 0.000 0.000 2.050 10000.000 0.000 0.154
33 99.00 1500.04 951 2408 0.000 0.000 0.000 2.050 10000.000 0.000 0.154
34 102.00 1500.04 960 2488 0.000 0.000 0.000 2.050 10000.000 0.000 0.154
35 105.00 1500.04 972 2384 0.000 0.000 0.000 2.050 10000.000 0.000 0.154
36 108.00 1500.04 911 2451 0.000 0.000 0.000 2.050 10000.000 0.000 0.154
37 111.00 1500.04 904 2464 0.000 0.000 0.000 2.050 10000.000 0.000 0.154
38 114.00 1500.04 939 2403 0.000 0.000 0.000 2.050 10000.000 0.000 0.154
39 117.00 1500.04 927 2408 0.000 0.000 0.000 2.050 10000.000 0.000 0.154
40 120.00 1500.04 980 2467 0.000 0.000 0.000 2.050 10000.000 0.000 0.154
41 123.00 1500.04 996 2409 0.000 0.000 0.000 2.050 10000.000 0.000 0.154
42 126.00 1500.04 937 2428 0.000 0.000 0.000 2.050 10000.000 0.000 0.154
43 129.00 1500.04 930 2379 0.000 0.000 0.000 2.050 10000.000 0.000 0.154
44 132.00 1500.04 951 2565 0.000 0.000 0.000 2.050 10000.000 0.000 0.154
45 135.00 1500.04 907 2407 0.000 0.000 0.000 2.050 10000.000 0.000 0.154
46 138.00 1500.04 973 2422 0.000 0.000 0.000 2.050 10000.000 0.000 0.154
47 141.00 1500.04 926 2469 0.000 0.000 0.000 2.050 10000.000 0.000 0.154
48 144.00 1500.04 928 2447 0.000 0.000 0.000 2.050 10000.000 0.000 0.154
49 147.00 1500.04 942 2357 0.000 0.000 0.000 2.050 10000.000 0.000 0.154
50 150.00 1500.04 993 2418 0.000 0.000 0.000 2.050 10000.000 0.000 0.154
51 153.00 1500.04 903 2407 0.000 0.000 0.000 2.050 10000.000 0.000 0.154
52 156.00 1500.04 964 2404 0.000 0.000 0.000 2.050 10000.000 0.000 0.154
53 159.00 1500.04 935 2327 0.000 0.000 0.000 2.050 10000.000 0.000 0.154
54 162.00 1500.04 999 2404 0.000 0.000 0.000 2.050 10000.000 0.000 0.154
55 165.00 1500.04 898 2358 0.000 0.000 0.000 2.050 10000.000 0.000 0.154
56 168.00 1500.04 939 2478 0.000 0.000 0.000 2.050 10000.000 0.000 0.154
57 171.00 1500.04 947 2531 0.000 0.000 0.000 2.050 10000.000 0.000 0.154
58 174.00 1500.04 952 2390 0.000 0.000 0.000 2.050 10000.000 0.000 0.154
59 177.00 1500.04 965 2446 0.000 0.000 0.000 2.050 10000.000 0.000 0.154
60 180.00 1500.04 919 2467 0.000 0.000 0.000 2.050 10000.000 0.000 0.154
61 183.00 1500.04 926 2417 0.000 0.000 0.000 2.050 10000.000 0.000 0.154
62 186.00 1500.04 926 2482 0.000 0.000 0.000 2.050 10000.000 0.000 0.154
63 189.00 1500.04 906 2410 0.000 0.000 0.000 2.050 10000.000 0.000 0.154
64 192.00 1500.04 949 2414 0.000 0.000 0.000 2.050 10000.000 0.000 0.154
65 195.00 1500.04 909 2384 0.000 0.000 0.000 2.050 10000.000 0.000 0.154
66 198.00 1500.04 943 2385 0.000 0.000 0.000 2.050 10000.000 0.000 0.154
67 201.00 1500.04 928 2440 0.000 0.000 0.000 2.050 10000.000 0.000 0.154
68 204.00 1500.04 987 2415 0.000 0.000 0.000 2.050 10000.000 0.000 0.154
69 207.00 1500.04 928 2284 0.000 0.000 0.000 2.050 10000.000 0.000 0.154
70 210.00 1500.04 979 2454 0.000 0.000 0.000 2.050 10000.000 0.000 0.154
71 213.00 1500.04 910 2417 0.000 0.000 0.000 2.050 10000.000 0.000 0.154
72 216.00 1500.04 984 2399 0.000 0.000 0.000 2.050 10000.000 0.000 0.154
73 219.00 1500.04 917 2482 0.000 0.000 0.000 2.050 10000.000 0.000 0.154
74 222.00 1500.04 974 2483 0.000 0.000 0.000 2.050 10000.000 0.000 0.154
75 225.00 1500.04 915 2356 0.000 0.000 0.000 2.050 10000.000 0.000 0.154
76 228.00 1500.04 878 2466 0.000 0.000 0.000 2.050 10000.000 0.000 0.154
77 231.00 1500.04 963 2383 0.000 0.000 0.000 2.050 10000.000 0.000 0.154
78 234.00 1500.04 945 2459 0.000 0.000 0.000 2.050 10000.000 0.000 0.154
79 237.00 1500.04 913 2350 0.000 0.000 0.000 2.050 10000.000 0.000 0.154
80 240.00 1500.04 926 2341 0.000 0.000 0.000 2.050 10000.000 0.000 0.154
81 243.00 1500.04 885 2342 0.000 0.000 0.000 2.050 10000.000 0.000 0.154
82 246.00 1500.04 922 2438 0.000 0.000 0.000 2.050 10000.000 0.000 0.154
83 249.00 1500.04 929 2426 0.000 0.000 0.000 2.050 10000.000 0.000 0.154
84 252.00 1500.04 956 2355 0.000 0.000 0.000 2.050 10000.000 0.000 0.154
85 255.00 1500.04 902 2390 0.000 0.000 0.000 2.050 10000.000 0.000 0.154
86 258.00 1500.04 948 2422 0.000 0.000 0.000 2.050 10000.000 0.000 0.154
87 261.00 1500.04 957 2395 0.000 0.000 0.000 2.050 10000.000 0.000 0.154
88 264.00 1500.04 1020 2413 0.000 0.000 0.000 2.050 10000.000 0.000 0.154
89 267.00 1500.04 952 2356 0.000 0.000 0.000 2.050 10000.000 0.000 0.154
90 270.00 1500.04 929 2380 0.000 0.000 0.000 2.050 10000.000 0.000 0.154
91 273.00 1500.04 914 2327 0.000 0.000 0.000 2.050 10000.000 0.000 0.154
92 276.00 1500.04 906 2475 0.000 0.000 0.000 2.050 10000.000 0.000 0.154
93 279.00 1500.04 920 2345 0.000 0.000 0.000 2.050 10000.000 0.000 0.154
94 282.00 1500.04 962 2418 0.000 0.000 0.000 2.050 10000.000 0.000 0.154
95 285.00 1500.04 896 2341 0.000 0.000 0.000 2.050 10000.000 0.000 0.154
96 288.00 1500.04 983 2384 0.000 0.000 0.000 2.050 10000.000 0.000 0.154
97 291.00 1500.04 922 2383 0.000 0.000 0.000 2.050 10000.000 0.000 0.154
98 294.00 1500.04 968 2434 0.000 0.000 0.000 2.050 10000.000 0.000 0.154
99 297.00 1500.04 881 2328 0.000 0.000 0.000 2.050 10000.000 0.000 0.154
100 300.00 1500.04 953 2398 0.000 0.000 0.000 2.050 10000.000 0.000 0.154
101 303.00 1500.04 948 2422 0.000 0.000 0.000 2.050 10000.000 0.000 0.154
102 306.00 1500.04 961 2431 0.000 0.000 0.000 2.050 10000.000 0.000 0.154
103 309.00 1500.04 904 2339 0.000 0.000 0.000 2.050 10000.000 0.000 0.154
104 312.00 1500.04 945 2460 0.000 0.000 0.000 2.050 10000.000 0.000 0.154
105 315.00 1500.04 931 2371 0.000 0.000 0.000 2.050 10000.000 0.000 0.154
106 318.00 1500.04 912 2460 0.000 0.000 0.000 2.050 10000.000 0.000 0.154
107 321.00 1500.04 986 2373 0.000 0.000 0.000 2.050 10000.000 0.000 0.154
108 324.00 1500.04 931 2438 0.000 0.000 0.000 2.050 10000.000 0.000 0.154
109 327.00 1500.04 923 2410 0.000 0.000 0.000 2.050 10000.000 0.000 0.154
110 330.00 1500.04 901 2430 0.000 0.000 0.000 2.050 10000.000 0.000 0.154
111 333.00 1500.04 919 2448 0.000 0.000 0.000 2.050 10000.000 0.000 0.154
112 336.00 1500.04 980 2358 0.000 0.000 0.000 2.050 10000.000 0.000 0.154
113 339.00 1500.04 891 2360 0.000 0.000 0.000 2.050 10000.000 0.000 0.154
114 342.00 1500.04 1023 2545 0.000 0.000 0.000 2.050 10000.000 0.000 0.154
115 345.00 1500.04 936 2435 0.000 0.000 0.000 2.050 10000.000 0.000 0.154
116 348.00 1500.04 942 2493 0.000 0.000 0.000 2.050 10000.000 0.000 0.154
117 351.00 1500.04 887 2371 0.000 0.000 0.000 2.050 10000.000 0.000 0.154
118 354.00 1500.04 957 2354 0.000 0.000 0.000 2.050 10000.000 0.000 0.154
119 357.00 1500.04 951 2344 0.000 0.000 0.000 2.050 10000.000 0.000 0.154
120 360.00 1500.04 956 2435 0.000 0.000 0.000 2.050 10000.000 0.000 0.154
121 363.00 1500.04 976 2375 0.000 0.000 0.000 2.050 10000.000 0.000 0.154
122 366.00 1500.04 980 2422 0.000 0.000 0.000 2.050 10000.000 0.000 0.154
123 369.00 1500.04 922 2447 0.000 0.000 0.000 2.050 10000.000 0.000 0.154
124 372.00 1500.04 952 2397 0.000 0.000 0.000 2.050 10000.000 0.000 0.154
125 375.00 1500.04 908 2319 0.000 0.000 0.000 2.050 10000.000 0.000 0.154
126 378.00 1500.04 927 2402 0.000 0.000 0.000 2.050 10000.000 0.000 0.154
127 381.00 1500.04 977 2384 0.000 0.000 0.000 2.050 10000.000 0.000 0.154
128 384.00 1500.04 960 2510 0.000 0.000 0.000 2.050 10000.000 0.000 0.154
129 387.00 1500.04 955 2252 0.000 0.000 0.000 2.050 10000.000 0.000 0.154
130 390.00 1500.04 959 2474 0.000 0.000 0.000 2.050 10000.000 0.000 0.154
131 393.00 1500.04 899 2447 0.000 0.000 0.000 2.050 10000.000 0.000 0.154
132 396.00 1500.04 955 2446 0.000 0.000 0.000 2.050 10000.000 0.000 0.154
133 399.00 1500.04 901 2397 0.000 0.000 0.000 2.050 10000.000 0.000 0.154
134 402.00 1500.04 942 2450 0.000 0.000 0.000 2.050 10000.000 0.000 0.154
