# BinNR microsec tot-time (s)  O-Beam AUX Ampl_1(V) f_1(Hz) phase_1(deg) Ampl_2(V) f_2(Hz) phase_2(deg) chi(pos)
0 0.00 1500.03 453 1190 0.000 0.000 0.000 2.050 10000.000 0.000 1.165
1 3.00 1500.03 876 2385 0.000 0.000 0.000 2.050 10000.000 0.000 1.165
2 6.00 1500.03 919 2431 0.000 0.000 0.000 2.050 10000.000 0.000 1.165
3 9.00 1500.03 947 2307 0.000 0.000 0.000 2.050 10000.000 0.000 1.165
4 12.00 1500.03 894 2440 0.000 0.000 0.000 2.050 10000.000 0.000 1.165
5 15.00 1500.03 904 2277 0.000 0.000 0.000 2.050 10000.000 0.000 1.165
6 18.00 1500.03 885 2403 0.000 0.000 0.000 2.050 10000.000 0.000 1.165
7 21.00 1500.03 922 2305 0.000 0.000 0.000 2.050 10000.000 0.000 1.165
8 24.00 1500.03 918 2314 0.000 0.000 0.000 2.050 10000.000 0.000 1.165
9 27.00 1500.03 927 2437 0.000 0.000 0.000 2.050 10000.000 0.000 1.165
10 30.00 1500.03 943 2403 0.000 0.000 0.000 2.050 10000.000 0.000 1.165
11 33.00 1500.03 983 2372 0.000 0.000 0.000 2.050 10000.000 0.000 1.165
12 36.00 1500.03 957 2380 0.000 0.000 0.000 2.050 10000.000 0.000 1.165
13 39.00 1500.03 918 2360 0.000 0.000 0.000 2.050 10000.000 0.000 1.165
14 42.00 1500.03 921 2262 0.000 0.000 0.000 2.050 10000.000 0.000 1.165
15 45.00 1500.03 904 2365 0.000 0.000 0.000 2.050 10000.000 0.000 1.165
16 48.00 1500.03 946 2344 0.000 0.000 0.000 2.050 10000.000 0.000 1.165
17 51.00 1500.03 901 2327 0.000 0.000 0.000 2.050 10000.000 0.000 1.165
18 54.00 1500.03 860 2298 0.000 0.000 0.000 2.050 10000.000 0.000 1.165
19 57.00 1500.03 877 2286 0.000 0.000 0.000 2.050 10000.000 0.000 1.165
20 60.00 1500.03 944 2319 0.000 0.000 0.000 2.050 10000.000 0.000 1.165
21 63.00 1500.03 934 2319 0.000 0.000 0.000 2.050 10000.000 0.000 1.165
22 66.00 1500.03 965 2306 0.000 0.000 0.000 2.050 10000.000 0.000 1.165
23 69.00 1500.03 901 2222 0.000 0.000 0.000 2.050 10000.000 0.000 1.165
24 72.00 1500.03 935 2400 0.000 0.000 0.000 2.050 10000.000 0.000 1.165
25 75.00 1500.03 885 2260 0.000 0.000 0.000 2.050 10000.000 0.000 1.165
26 78.00 1500.03 938 2416 0.000 0.000 0.000 2.050 10000.000 0.000 1.165
27 81.00 1500.03 931 2328 0.000 0.000 0.000 2.050 10000.000 0.000 1.165
28 84.00 1500.03 938 2290 0.000 0.000 0.000 2.050 10000.000 0.000 1.165
29 87.00 1500.03 898 2326 0.000 0.000 0.000 2.050 10000.000 0.000 1.165
30 90.00 1500.03 938 2428 0.000 0.000 0.000 2.050 10000.000 0.000 1.165
31 93.00 1500.03 927 2311 0.000 0.000 0.000 2.050 10000.000 0.000 1.165
32 96.00 1500.03 893 2313 0.000 0.000 0.000 2.050 10000.000 0.000 1.165
33 99.00 1500.03 887 2224 0.000 0.000 0.000 2.050 10000.000 0.000 1.165
34 102.00 1500.03 932 2349 0.000 0.000 0.000 2.050 10000.000 0.000 1.165
35 105.00 1500.03 956 2280 0.000 0.000 0.000 2.050 10000.000 0.000 1.165
36 108.00 1500.03 926 2328 0.000 0.000 0.000 2.050 10000.000 0.000 1.165
37 111.00 1500.03 903 2383 0.000 0.000 0.000 2.050 10000.000 0.000 1.165
38 114.00 1500.03 962 2331 0.000 0.000 0.000 2.050 10000.000 0.000 1.165
39 117.00 1500.03 909 2400 0.000 0.000 0.000 2.050 10000.000 0.000 1.165
40 120.00 1500.03 968 2405 0.000 0.000 0.000 2.050 10000.000 0.000 1.165
41 123.00 1500.03 906 2340 0.000 0.000 0.000 2.050 10000.000 0.000 1.165
42 126.00 1500.03 920 2349 0.000 0.000 0.000 2.050 10000.000 0.000 1.165
43 129.00 1500.03 877 2281 0.000 0.000 0.000 2.050 10000.000 0.000 1.165
44 132.00 1500.03 932 2442 0.000 0.000 0.000 2.050 10000.000 0.000 1.165
45 135.00 1500.03 963 2282 0.000 0.000 0.000 2.050 10000.000 0.000 1.165
46 138.00 1500.03 902 2487 0.000 0.000 0.000 2.050 10000.000 0.000 1.165
47 141.00 1500.03 895 2397 0.000 0.000 0.000 2.050 10000.000 0.000 1.165
48 144.00 1500.03 965 2388 0.000 0.000 0.000 2.050 10000.000 0.000 1.165
49 147.00 1500.03 987 2318 0.000 0.000 0.000 2.050 10000.000 0.000 1.165
50 150.00 1500.03 915 2409 0.000 0.000 0.000 2.050 10000.000 0.000 1.165
51 153.00 1500.03 930 2344 0.000 0.000 0.000 2.050 10000.000 0.000 1.165
52 156.00 1500.03 943 2343 0.000 0.000 0.000 2.050 10000.000 0.000 1.165
53 159.00 1500.03 871 2344 0.000 0.000 0.000 2.050 10000.000 0.000 1.165
54 162.00 1500.03 943 2356 0.000 0.000 0.000 2.050 10000.000 0.000 1.165
55 165.00 1500.03 950 2407 0.000 0.000 0.000 2.050 10000.000 0.000 1.165
56 168.00 1500.03 949 2343 0.000 0.000 0.000 2.050 10000.000 0.000 1.165
57 171.00 1500.03 923 2389 0.000 0.000 0.000 2.050 10000.000 0.000 1.165
58 174.00 1500.03 899 2352 0.000 0.000 0.000 2.050 10000.000 0.000 1.165
59 177.00 1500.03 924 2280 0.000 0.000 0.000 2.050 10000.000 0.000 1.165
60 180.00 1500.03 920 2358 0.000 0.000 0.000 2.050 10000.000 0.000 1.165
61 183.00 1500.03 969 2256 0.000 0.000 0.000 2.050 10000.000 0.000 1.165
62 186.00 1500.03 896 2272 0.000 0.000 0.000 2.050 10000.000 0.000 1.165
63 189.00 1500.03 908 2350 0.000 0.000 0.000 2.050 10000.000 0.000 1.165
64 192.00 1500.03 946 2357 0.000 0.000 0.000 2.050 10000.000 0.000 1.165
65 195.00 1500.03 933 2360 0.000 0.000 0.000 2.050 10000.000 0.000 1.165
66 198.00 1500.03 903 2438 0.000 0.000 0.000 2.050 10000.000 0.000 1.165
67 201.00 1500.03 908 2344 0.000 0.000 0.000 2.050 10000.000 0.000 1.165
68 204.00 1500.03 921 2435 0.000 0.000 0.000 2.050 10000.000 0.000 1.165
69 207.00 1500.03 906 2362 0.000 0.000 0.000 2.050 10000.000 0.000 1.165
70 210.00 1500.03 914 2555 0.000 0.000 0.000 2.050 10000.000 0.000 1.165
71 213.00 1500.03 909 2331 0.000 0.000 0.000 2.050 10000.000 0.000 1.165
72 216.00 1500.03 954 2292 0.000 0.000 0.000 2.050 10000.000 0.000 1.165
73 219.00 1500.03 837 2368 0.000 0.000 0.000 2.050 10000.000 0.000 1.165
74 222.00 1500.03 938 2421 0.000 0.000 0.000 2.050 10000.000 0.000 1.165
75 225.00 1500.03 952 2343 0.000 0.000 0.000 2.050 10000.000 0.000 1.165
76 228.00 1500.03 995 2366 0.000 0.000 0.000 2.050 10000.000 0.000 1.165
77 231.00 1500.03 961 2328 0.000 0.000 0.000 2.050 10000.000 0.000 1.165
78 234.00 1500.03 973 2364 0.000 0.000 0.000 2.050 10000.000 0.000 1.165
79 237.00 1500.03 959 2306 0.000 0.000 0.000 2.050 10000.000 0.000 1.165
80 240.00 1500.03 930 2347 0.000 0.000 0.000 2.050 10000.000 0.000 1.165
81 243.00 1500.03 887 2409 0.000 0.000 0.000 2.050 10000.000 0.000 1.165
82 246.00 1500.03 888 2371 0.000 0.000 0.000 2.050 10000.000 0.000 1.165
83 249.00 1500.03 882 2302 0.000 0.000 0.000 2.050 10000.000 0.000 1.165
84 252.00 1500.03 930 2391 0.000 0.000 0.000 2.050 10000.000 0.000 1.165
85 255.00 1500.03 921 2321 0.000 0.000 0.000 2.050 10000.000 0.000 1.165
86 258.00 1500.03 886 2304 0.000 0.000 0.000 2.050 10000.000 0.000 1.165
87 261.00 1500.03 897 2291 0.000 0.000 0.000 2.050 10000.000 0.000 1.165
88 264.00 1500.03 904 2398 0.000 0.000 0.000 2.050 10000.000 0.000 1.165
89 267.00 1500.03 945 2296 0.000 0.000 0.000 2.050 10000.000 0.000 1.165
90 270.00 1500.03 900 2421 0.000 0.000 0.000 2.050 10000.000 0.000 1.165
91 273.00 1500.03 914 2396 0.000 0.000 0.000 2.050 10000.000 0.000 1.165
92 276.00 1500.03 904 2383 0.000 0.000 0.000 2.050 10000.000 0.000 1.165
93 279.00 1500.03 909 2375 0.000 0.000 0.000 2.050 10000.000 0.000 1.165
94 282.00 1500.03 902 2262 0.000 0.000 0.000 2.050 10000.000 0.000 1.165
95 285.00 1500.03 874 2367 0.000 0.000 0.000 2.050 10000.000 0.000 1.165
96 288.00 1500.03 958 2406 0.000 0.000 0.000 2.050 10000.000 0.000 1.165
97 291.00 1500.03 880 2400 0.000 0.000 0.000 2.050 10000.000 0.000 1.165
98 294.00 1500.03 948 2353 0.000 0.000 0.000 2.050 10000.000 0.000 1.165
99 297.00 1500.03 893 2356 0.000 0.000 0.000 2.050 10000.000 0.000 1.165
100 300.00 1500.03 1004 2311 0.000 0.000 0.000 2.050 10000.000 0.000 1.165
101 303.00 1500.03 884 2383 0.000 0.000 0.000 2.050 10000.000 0.000 1.165
102 306.00 1500.03 890 2362 0.000 0.000 0.000 2.050 10000.000 0.000 1.165
103 309.00 1500.03 866 2307 0.000 0.000 0.000 2.050 10000.000 0.000 1.165
104 312.00 1500.03 939 2450 0.000 0.000 0.000 2.050 10000.000 0.000 1.165
105 315.00 1500.03 938 2355 0.000 0.000 0.000 2.050 10000.000 0.000 1.165
106 318.00 1500.03 897 2471 0.000 0.000 0.000 2.050 10000.000 0.000 1.165
107 321.00 1500.03 937 2352 0.000 0.000 0.000 2.050 10000.000 0.000 1.165
108 324.00 1500.03 947 2332 0.000 0.000 0.000 2.050 10000.000 0.000 1.165
109 327.00 1500.03 992 2231 0.000 0.000 0.000 2.050 10000.000 0.000 1.165
110 330.00 1500.03 902 2460 0.000 0.000 0.000 2.050 10000.000 0.000 1.165
111 333.00 1500.03 897 2312 0.000 0.000 0.000 2.050 10000.000 0.000 1.165
112 336.00 1500.03 901 2346 0.000 0.000 0.000 2.050 10000.000 0.000 1.165
113 339.00 1500.03 898 2468 0.000 0.000 0.000 2.050 10000.000 0.000 1.165
114 342.00 1500.03 910 2364 0.000 0.000 0.000 2.050 10000.000 0.000 1.165
115 345.00 1500.03 946 2279 0.000 0.000 0.000 2.050 10000.000 0.000 1.165
116 348.00 1500.03 951 2365 0.000 0.000 0.000 2.050 10000.000 0.000 1.165
117 351.00 1500.03 887 2280 0.000 0.000 0.000 2.050 10000.000 0.000 1.165
118 354.00 1500.03 924 2413 0.000 0.000 0.000 2.050 10000.000 0.000 1.165
119 357.00 1500.03 917 2323 0.000 0.000 0.000 2.050 10000.000 0.000 1.165
120 360.00 1500.03 931 2380 0.000 0.000 0.000 2.050 10000.000 0.000 1.165
121 363.00 1500.03 902 2334 0.000 0.000 0.000 2.050 10000.000 0.000 1.165
122 366.00 1500.03 952 2393 0.000 0.000 0.000 2.050 10000.000 0.000 1.165
123 369.00 1500.03 925 2293 0.000 0.000 0.000 2.050 10000.000 0.000 1.165
124 372.00 1500.03 902 2427 0.000 0.000 0.000 2.050 10000.000 0.000 1.165
125 375.00 1500.03 893 2282 0.000 0.000 0.000 2.050 10000.000 0.000 1.165
126 378.00 1500.03 905 2457 0.000 0.000 0.000 2.050 10000.000 0.000 1.165
127 381.00 1500.03 883 2333 0.000 0.000 0.000 2.050 10000.000 0.000 1.165
128 384.00 1500.03 909 2303 0.000 0.000 0.000 2.050 10000.000 0.000 1.165
129 387.00 1500.03 981 2423 0.000 0.000 0.000 2.050 10000.000 0.000 1.165
130 390.00 1500.03 890 2302 0.000 0.000 0.000 2.050 10000.000 0.000 1.165
131 393.00 1500.03 903 2297 0.000 0.000 0.000 2.050 10000.000 0.000 1.165
132 396.00 1500.03 962 2377 0.000 0.000 0.000 2.050 10000.000 0.000 1.165
133 399.00 1500.03 926 2350 0.000 0.000 0.000 2.050 10000.000 0.000 1.165
134 402.00 1500.03 898 2399 0.000 0.000 0.000 2.050 10000.000 0.000 1.165
