# BinNR microsec tot-time (s)  O-Beam AUX Ampl(V) f(Hz) phase(deg) chi(pos)
0 0.00 1200.02 110 236 2.000 10000.000 0.000 -1.494
1 3.00 1200.02 209 446 2.000 10000.000 0.000 -1.494
2 6.00 1200.02 247 449 2.000 10000.000 0.000 -1.494
3 9.00 1200.02 211 362 2.000 10000.000 0.000 -1.494
4 12.00 1200.02 203 345 2.000 10000.000 0.000 -1.494
5 15.00 1200.02 204 296 2.000 10000.000 0.000 -1.494
6 18.00 1200.02 194 248 2.000 10000.000 0.000 -1.494
7 21.00 1200.02 158 223 2.000 10000.000 0.000 -1.494
8 24.00 1200.02 195 230 2.000 10000.000 0.000 -1.494
9 27.00 1200.02 181 238 2.000 10000.000 0.000 -1.494
10 30.00 1200.02 171 275 2.000 10000.000 0.000 -1.494
11 33.00 1200.02 168 280 2.000 10000.000 0.000 -1.494
12 36.00 1200.02 166 278 2.000 10000.000 0.000 -1.494
13 39.00 1200.02 179 295 2.000 10000.000 0.000 -1.494
14 42.00 1200.02 179 293 2.000 10000.000 0.000 -1.494
15 45.00 1200.02 160 294 2.000 10000.000 0.000 -1.494
16 48.00 1200.02 177 297 2.000 10000.000 0.000 -1.494
17 51.00 1200.02 174 331 2.000 10000.000 0.000 -1.494
18 54.00 1200.02 158 309 2.000 10000.000 0.000 -1.494
19 57.00 1200.02 139 312 2.000 10000.000 0.000 -1.494
20 60.00 1200.02 162 313 2.000 10000.000 0.000 -1.494
21 63.00 1200.02 158 255 2.000 10000.000 0.000 -1.494
22 66.00 1200.02 184 244 2.000 10000.000 0.000 -1.494
23 69.00 1200.02 132 250 2.000 10000.000 0.000 -1.494
24 72.00 1200.02 190 250 2.000 10000.000 0.000 -1.494
25 75.00 1200.02 205 233 2.000 10000.000 0.000 -1.494
26 78.00 1200.02 208 242 2.000 10000.000 0.000 -1.494
27 81.00 1200.02 204 299 2.000 10000.000 0.000 -1.494
28 84.00 1200.02 229 373 2.000 10000.000 0.000 -1.494
29 87.00 1200.02 268 446 2.000 10000.000 0.000 -1.494
30 90.00 1200.02 233 459 2.000 10000.000 0.000 -1.494
31 93.00 1200.02 274 493 2.000 10000.000 0.000 -1.494
32 96.00 1200.02 245 507 2.000 10000.000 0.000 -1.494
33 99.00 1200.02 209 563 2.000 10000.000 0.000 -1.494
34 102.00 1200.02 232 514 2.000 10000.000 0.000 -1.494
35 105.00 1200.02 227 505 2.000 10000.000 0.000 -1.494
36 108.00 1200.02 201 462 2.000 10000.000 0.000 -1.494
37 111.00 1200.02 193 427 2.000 10000.000 0.000 -1.494
38 114.00 1200.02 200 380 2.000 10000.000 0.000 -1.494
39 117.00 1200.02 177 317 2.000 10000.000 0.000 -1.494
40 120.00 1200.02 163 255 2.000 10000.000 0.000 -1.494
41 123.00 1200.02 182 262 2.000 10000.000 0.000 -1.494
42 126.00 1200.02 182 243 2.000 10000.000 0.000 -1.494
43 129.00 1200.02 165 227 2.000 10000.000 0.000 -1.494
44 132.00 1200.02 154 250 2.000 10000.000 0.000 -1.494
45 135.00 1200.02 190 284 2.000 10000.000 0.000 -1.494
46 138.00 1200.02 203 310 2.000 10000.000 0.000 -1.494
47 141.00 1200.02 163 357 2.000 10000.000 0.000 -1.494
48 144.00 1200.02 189 356 2.000 10000.000 0.000 -1.494
49 147.00 1200.02 155 389 2.000 10000.000 0.000 -1.494
50 150.00 1200.02 177 374 2.000 10000.000 0.000 -1.494
51 153.00 1200.02 158 354 2.000 10000.000 0.000 -1.494
52 156.00 1200.02 153 353 2.000 10000.000 0.000 -1.494
53 159.00 1200.02 144 307 2.000 10000.000 0.000 -1.494
54 162.00 1200.02 161 274 2.000 10000.000 0.000 -1.494
55 165.00 1200.02 155 258 2.000 10000.000 0.000 -1.494
56 168.00 1200.02 185 210 2.000 10000.000 0.000 -1.494
57 171.00 1200.02 187 256 2.000 10000.000 0.000 -1.494
58 174.00 1200.02 170 228 2.000 10000.000 0.000 -1.494
59 177.00 1200.02 204 264 2.000 10000.000 0.000 -1.494
60 180.00 1200.02 192 320 2.000 10000.000 0.000 -1.494
61 183.00 1200.02 167 359 2.000 10000.000 0.000 -1.494
62 186.00 1200.02 236 392 2.000 10000.000 0.000 -1.494
63 189.00 1200.02 211 465 2.000 10000.000 0.000 -1.494
64 192.00 1200.02 249 509 2.000 10000.000 0.000 -1.494
65 195.00 1200.02 250 500 2.000 10000.000 0.000 -1.494
66 198.00 1200.02 259 553 2.000 10000.000 0.000 -1.494
67 201.00 1200.02 250 519 2.000 10000.000 0.000 -1.494
68 204.00 1200.02 251 528 2.000 10000.000 0.000 -1.494
69 207.00 1200.02 236 481 2.000 10000.000 0.000 -1.494
70 210.00 1200.02 227 478 2.000 10000.000 0.000 -1.494
71 213.00 1200.02 226 391 2.000 10000.000 0.000 -1.494
72 216.00 1200.02 180 349 2.000 10000.000 0.000 -1.494
73 219.00 1200.02 162 280 2.000 10000.000 0.000 -1.494
74 222.00 1200.02 171 236 2.000 10000.000 0.000 -1.494
75 225.00 1200.02 204 245 2.000 10000.000 0.000 -1.494
76 228.00 1200.02 166 231 2.000 10000.000 0.000 -1.494
77 231.00 1200.02 181 233 2.000 10000.000 0.000 -1.494
78 234.00 1200.02 204 276 2.000 10000.000 0.000 -1.494
79 237.00 1200.02 185 298 2.000 10000.000 0.000 -1.494
80 240.00 1200.02 181 322 2.000 10000.000 0.000 -1.494
81 243.00 1200.02 164 330 2.000 10000.000 0.000 -1.494
82 246.00 1200.02 169 398 2.000 10000.000 0.000 -1.494
83 249.00 1200.02 168 367 2.000 10000.000 0.000 -1.494
84 252.00 1200.02 184 386 2.000 10000.000 0.000 -1.494
85 255.00 1200.02 139 354 2.000 10000.000 0.000 -1.494
86 258.00 1200.02 157 346 2.000 10000.000 0.000 -1.494
87 261.00 1200.02 154 295 2.000 10000.000 0.000 -1.494
88 264.00 1200.02 170 273 2.000 10000.000 0.000 -1.494
89 267.00 1200.02 148 251 2.000 10000.000 0.000 -1.494
90 270.00 1200.02 154 252 2.000 10000.000 0.000 -1.494
91 273.00 1200.02 146 252 2.000 10000.000 0.000 -1.494
92 276.00 1200.02 177 266 2.000 10000.000 0.000 -1.494
93 279.00 1200.02 187 263 2.000 10000.000 0.000 -1.494
94 282.00 1200.02 240 350 2.000 10000.000 0.000 -1.494
95 285.00 1200.02 261 396 2.000 10000.000 0.000 -1.494
96 288.00 1200.02 235 398 2.000 10000.000 0.000 -1.494
97 291.00 1200.02 232 480 2.000 10000.000 0.000 -1.494
98 294.00 1200.02 264 516 2.000 10000.000 0.000 -1.494
99 297.00 1200.02 262 534 2.000 10000.000 0.000 -1.494
100 300.00 1200.02 242 571 2.000 10000.000 0.000 -1.494
101 303.00 1200.02 193 427 2.000 10000.000 0.000 -1.494
