# BinNR microsec tot-time (s)  O-Beam AUX Ampl(V) f(Hz) phase(deg) chi(pos)
0 0.00 1200.02 89 136 2.000 10000.000 0.000 0.901
1 3.00 1200.02 160 272 2.000 10000.000 0.000 0.901
2 6.00 1200.02 148 310 2.000 10000.000 0.000 0.901
3 9.00 1200.02 164 253 2.000 10000.000 0.000 0.901
4 12.00 1200.02 189 311 2.000 10000.000 0.000 0.901
5 15.00 1200.02 168 293 2.000 10000.000 0.000 0.901
6 18.00 1200.02 182 430 2.000 10000.000 0.000 0.901
7 21.00 1200.02 201 436 2.000 10000.000 0.000 0.901
8 24.00 1200.02 217 545 2.000 10000.000 0.000 0.901
9 27.00 1200.02 229 610 2.000 10000.000 0.000 0.901
10 30.00 1200.02 274 648 2.000 10000.000 0.000 0.901
11 33.00 1200.02 222 673 2.000 10000.000 0.000 0.901
12 36.00 1200.02 280 763 2.000 10000.000 0.000 0.901
13 39.00 1200.02 259 777 2.000 10000.000 0.000 0.901
14 42.00 1200.02 263 779 2.000 10000.000 0.000 0.901
15 45.00 1200.02 244 757 2.000 10000.000 0.000 0.901
16 48.00 1200.02 243 826 2.000 10000.000 0.000 0.901
17 51.00 1200.02 232 821 2.000 10000.000 0.000 0.901
18 54.00 1200.02 248 717 2.000 10000.000 0.000 0.901
19 57.00 1200.02 200 742 2.000 10000.000 0.000 0.901
20 60.00 1200.02 221 728 2.000 10000.000 0.000 0.901
21 63.00 1200.02 192 644 2.000 10000.000 0.000 0.901
22 66.00 1200.02 172 608 2.000 10000.000 0.000 0.901
23 69.00 1200.02 171 554 2.000 10000.000 0.000 0.901
24 72.00 1200.02 175 475 2.000 10000.000 0.000 0.901
25 75.00 1200.02 149 411 2.000 10000.000 0.000 0.901
26 78.00 1200.02 144 389 2.000 10000.000 0.000 0.901
27 81.00 1200.02 119 347 2.000 10000.000 0.000 0.901
28 84.00 1200.02 141 270 2.000 10000.000 0.000 0.901
29 87.00 1200.02 128 275 2.000 10000.000 0.000 0.901
30 90.00 1200.02 156 279 2.000 10000.000 0.000 0.901
31 93.00 1200.02 137 260 2.000 10000.000 0.000 0.901
32 96.00 1200.02 131 283 2.000 10000.000 0.000 0.901
33 99.00 1200.02 127 244 2.000 10000.000 0.000 0.901
34 102.00 1200.02 152 265 2.000 10000.000 0.000 0.901
35 105.00 1200.02 165 256 2.000 10000.000 0.000 0.901
36 108.00 1200.02 171 230 2.000 10000.000 0.000 0.901
37 111.00 1200.02 153 282 2.000 10000.000 0.000 0.901
38 114.00 1200.02 192 275 2.000 10000.000 0.000 0.901
39 117.00 1200.02 190 328 2.000 10000.000 0.000 0.901
40 120.00 1200.02 199 367 2.000 10000.000 0.000 0.901
41 123.00 1200.02 195 384 2.000 10000.000 0.000 0.901
42 126.00 1200.02 239 487 2.000 10000.000 0.000 0.901
43 129.00 1200.02 199 583 2.000 10000.000 0.000 0.901
44 132.00 1200.02 240 666 2.000 10000.000 0.000 0.901
45 135.00 1200.02 233 718 2.000 10000.000 0.000 0.901
46 138.00 1200.02 241 735 2.000 10000.000 0.000 0.901
47 141.00 1200.02 241 868 2.000 10000.000 0.000 0.901
48 144.00 1200.02 239 817 2.000 10000.000 0.000 0.901
49 147.00 1200.02 245 867 2.000 10000.000 0.000 0.901
50 150.00 1200.02 238 828 2.000 10000.000 0.000 0.901
51 153.00 1200.02 274 837 2.000 10000.000 0.000 0.901
52 156.00 1200.02 218 845 2.000 10000.000 0.000 0.901
53 159.00 1200.02 223 748 2.000 10000.000 0.000 0.901
54 162.00 1200.02 185 697 2.000 10000.000 0.000 0.901
55 165.00 1200.02 191 655 2.000 10000.000 0.000 0.901
56 168.00 1200.02 202 590 2.000 10000.000 0.000 0.901
57 171.00 1200.02 167 523 2.000 10000.000 0.000 0.901
58 174.00 1200.02 182 488 2.000 10000.000 0.000 0.901
59 177.00 1200.02 153 373 2.000 10000.000 0.000 0.901
60 180.00 1200.02 153 345 2.000 10000.000 0.000 0.901
61 183.00 1200.02 141 284 2.000 10000.000 0.000 0.901
62 186.00 1200.02 133 280 2.000 10000.000 0.000 0.901
63 189.00 1200.02 148 294 2.000 10000.000 0.000 0.901
64 192.00 1200.02 148 272 2.000 10000.000 0.000 0.901
65 195.00 1200.02 147 270 2.000 10000.000 0.000 0.901
66 198.00 1200.02 145 250 2.000 10000.000 0.000 0.901
67 201.00 1200.02 169 264 2.000 10000.000 0.000 0.901
68 204.00 1200.02 146 269 2.000 10000.000 0.000 0.901
69 207.00 1200.02 168 261 2.000 10000.000 0.000 0.901
70 210.00 1200.02 163 264 2.000 10000.000 0.000 0.901
71 213.00 1200.02 158 284 2.000 10000.000 0.000 0.901
72 216.00 1200.02 187 297 2.000 10000.000 0.000 0.901
73 219.00 1200.02 180 336 2.000 10000.000 0.000 0.901
74 222.00 1200.02 181 380 2.000 10000.000 0.000 0.901
75 225.00 1200.02 217 500 2.000 10000.000 0.000 0.901
76 228.00 1200.02 237 553 2.000 10000.000 0.000 0.901
77 231.00 1200.02 218 625 2.000 10000.000 0.000 0.901
78 234.00 1200.02 269 655 2.000 10000.000 0.000 0.901
79 237.00 1200.02 254 706 2.000 10000.000 0.000 0.901
80 240.00 1200.02 231 757 2.000 10000.000 0.000 0.901
81 243.00 1200.02 247 769 2.000 10000.000 0.000 0.901
82 246.00 1200.02 262 881 2.000 10000.000 0.000 0.901
83 249.00 1200.02 247 815 2.000 10000.000 0.000 0.901
84 252.00 1200.02 260 805 2.000 10000.000 0.000 0.901
85 255.00 1200.02 239 758 2.000 10000.000 0.000 0.901
86 258.00 1200.02 235 769 2.000 10000.000 0.000 0.901
87 261.00 1200.02 236 729 2.000 10000.000 0.000 0.901
88 264.00 1200.02 195 709 2.000 10000.000 0.000 0.901
89 267.00 1200.02 193 594 2.000 10000.000 0.000 0.901
90 270.00 1200.02 181 555 2.000 10000.000 0.000 0.901
91 273.00 1200.02 161 478 2.000 10000.000 0.000 0.901
92 276.00 1200.02 178 404 2.000 10000.000 0.000 0.901
93 279.00 1200.02 145 356 2.000 10000.000 0.000 0.901
94 282.00 1200.02 158 316 2.000 10000.000 0.000 0.901
95 285.00 1200.02 122 274 2.000 10000.000 0.000 0.901
96 288.00 1200.02 151 278 2.000 10000.000 0.000 0.901
97 291.00 1200.02 141 239 2.000 10000.000 0.000 0.901
98 294.00 1200.02 147 252 2.000 10000.000 0.000 0.901
99 297.00 1200.02 144 251 2.000 10000.000 0.000 0.901
100 300.00 1200.02 166 258 2.000 10000.000 0.000 0.901
101 303.00 1200.02 126 215 2.000 10000.000 0.000 0.901
