# BinNR microsec tot-time (s)  O-Beam AUX Ampl(V) f(Hz) phase(deg) chi(pos)
0 0.00 1200.00 81 141 2.000 10000.000 0.000 0.692
1 3.00 1200.00 166 276 2.000 10000.000 0.000 0.692
2 6.00 1200.00 165 235 2.000 10000.000 0.000 0.692
3 9.00 1200.00 139 225 2.000 10000.000 0.000 0.692
4 12.00 1200.00 140 206 2.000 10000.000 0.000 0.692
5 15.00 1200.00 144 232 2.000 10000.000 0.000 0.692
6 18.00 1200.00 188 215 2.000 10000.000 0.000 0.692
7 21.00 1200.00 150 247 2.000 10000.000 0.000 0.692
8 24.00 1200.00 169 249 2.000 10000.000 0.000 0.692
9 27.00 1200.00 166 306 2.000 10000.000 0.000 0.692
10 30.00 1200.00 193 376 2.000 10000.000 0.000 0.692
11 33.00 1200.00 212 452 2.000 10000.000 0.000 0.692
12 36.00 1200.00 181 454 2.000 10000.000 0.000 0.692
13 39.00 1200.00 198 479 2.000 10000.000 0.000 0.692
14 42.00 1200.00 180 485 2.000 10000.000 0.000 0.692
15 45.00 1200.00 173 505 2.000 10000.000 0.000 0.692
16 48.00 1200.00 185 467 2.000 10000.000 0.000 0.692
17 51.00 1200.00 183 462 2.000 10000.000 0.000 0.692
18 54.00 1200.00 148 423 2.000 10000.000 0.000 0.692
19 57.00 1200.00 169 417 2.000 10000.000 0.000 0.692
20 60.00 1200.00 148 420 2.000 10000.000 0.000 0.692
21 63.00 1200.00 138 369 2.000 10000.000 0.000 0.692
22 66.00 1200.00 115 324 2.000 10000.000 0.000 0.692
23 69.00 1200.00 135 292 2.000 10000.000 0.000 0.692
24 72.00 1200.00 130 228 2.000 10000.000 0.000 0.692
25 75.00 1200.00 119 224 2.000 10000.000 0.000 0.692
26 78.00 1200.00 153 196 2.000 10000.000 0.000 0.692
27 81.00 1200.00 152 201 2.000 10000.000 0.000 0.692
28 84.00 1200.00 158 241 2.000 10000.000 0.000 0.692
29 87.00 1200.00 176 234 2.000 10000.000 0.000 0.692
30 90.00 1200.00 180 252 2.000 10000.000 0.000 0.692
31 93.00 1200.00 155 305 2.000 10000.000 0.000 0.692
32 96.00 1200.00 152 307 2.000 10000.000 0.000 0.692
33 99.00 1200.00 151 313 2.000 10000.000 0.000 0.692
34 102.00 1200.00 144 287 2.000 10000.000 0.000 0.692
35 105.00 1200.00 191 292 2.000 10000.000 0.000 0.692
36 108.00 1200.00 171 275 2.000 10000.000 0.000 0.692
37 111.00 1200.00 166 222 2.000 10000.000 0.000 0.692
38 114.00 1200.00 159 250 2.000 10000.000 0.000 0.692
39 117.00 1200.00 159 203 2.000 10000.000 0.000 0.692
40 120.00 1200.00 159 189 2.000 10000.000 0.000 0.692
41 123.00 1200.00 160 197 2.000 10000.000 0.000 0.692
42 126.00 1200.00 199 271 2.000 10000.000 0.000 0.692
43 129.00 1200.00 174 247 2.000 10000.000 0.000 0.692
44 132.00 1200.00 176 319 2.000 10000.000 0.000 0.692
45 135.00 1200.00 184 382 2.000 10000.000 0.000 0.692
46 138.00 1200.00 187 439 2.000 10000.000 0.000 0.692
47 141.00 1200.00 170 472 2.000 10000.000 0.000 0.692
48 144.00 1200.00 202 555 2.000 10000.000 0.000 0.692
49 147.00 1200.00 191 519 2.000 10000.000 0.000 0.692
50 150.00 1200.00 172 594 2.000 10000.000 0.000 0.692
51 153.00 1200.00 163 560 2.000 10000.000 0.000 0.692
52 156.00 1200.00 161 532 2.000 10000.000 0.000 0.692
53 159.00 1200.00 170 486 2.000 10000.000 0.000 0.692
54 162.00 1200.00 148 437 2.000 10000.000 0.000 0.692
55 165.00 1200.00 121 363 2.000 10000.000 0.000 0.692
56 168.00 1200.00 140 305 2.000 10000.000 0.000 0.692
57 171.00 1200.00 115 225 2.000 10000.000 0.000 0.692
58 174.00 1200.00 133 224 2.000 10000.000 0.000 0.692
59 177.00 1200.00 126 184 2.000 10000.000 0.000 0.692
60 180.00 1200.00 145 191 2.000 10000.000 0.000 0.692
61 183.00 1200.00 152 256 2.000 10000.000 0.000 0.692
62 186.00 1200.00 165 224 2.000 10000.000 0.000 0.692
63 189.00 1200.00 146 264 2.000 10000.000 0.000 0.692
64 192.00 1200.00 153 275 2.000 10000.000 0.000 0.692
65 195.00 1200.00 185 273 2.000 10000.000 0.000 0.692
66 198.00 1200.00 187 335 2.000 10000.000 0.000 0.692
67 201.00 1200.00 172 311 2.000 10000.000 0.000 0.692
68 204.00 1200.00 188 315 2.000 10000.000 0.000 0.692
69 207.00 1200.00 146 249 2.000 10000.000 0.000 0.692
70 210.00 1200.00 166 267 2.000 10000.000 0.000 0.692
71 213.00 1200.00 157 221 2.000 10000.000 0.000 0.692
72 216.00 1200.00 175 228 2.000 10000.000 0.000 0.692
73 219.00 1200.00 151 212 2.000 10000.000 0.000 0.692
74 222.00 1200.00 157 188 2.000 10000.000 0.000 0.692
75 225.00 1200.00 142 207 2.000 10000.000 0.000 0.692
76 228.00 1200.00 166 263 2.000 10000.000 0.000 0.692
77 231.00 1200.00 154 313 2.000 10000.000 0.000 0.692
78 234.00 1200.00 197 366 2.000 10000.000 0.000 0.692
79 237.00 1200.00 184 469 2.000 10000.000 0.000 0.692
80 240.00 1200.00 190 463 2.000 10000.000 0.000 0.692
81 243.00 1200.00 190 534 2.000 10000.000 0.000 0.692
82 246.00 1200.00 195 538 2.000 10000.000 0.000 0.692
83 249.00 1200.00 178 553 2.000 10000.000 0.000 0.692
84 252.00 1200.00 198 547 2.000 10000.000 0.000 0.692
85 255.00 1200.00 183 531 2.000 10000.000 0.000 0.692
86 258.00 1200.00 182 481 2.000 10000.000 0.000 0.692
87 261.00 1200.00 162 408 2.000 10000.000 0.000 0.692
88 264.00 1200.00 125 355 2.000 10000.000 0.000 0.692
89 267.00 1200.00 129 291 2.000 10000.000 0.000 0.692
90 270.00 1200.00 131 265 2.000 10000.000 0.000 0.692
91 273.00 1200.00 137 233 2.000 10000.000 0.000 0.692
92 276.00 1200.00 136 196 2.000 10000.000 0.000 0.692
93 279.00 1200.00 158 222 2.000 10000.000 0.000 0.692
94 282.00 1200.00 141 212 2.000 10000.000 0.000 0.692
95 285.00 1200.00 154 237 2.000 10000.000 0.000 0.692
96 288.00 1200.00 170 218 2.000 10000.000 0.000 0.692
97 291.00 1200.00 149 248 2.000 10000.000 0.000 0.692
98 294.00 1200.00 143 320 2.000 10000.000 0.000 0.692
99 297.00 1200.00 141 307 2.000 10000.000 0.000 0.692
100 300.00 1200.00 169 298 2.000 10000.000 0.000 0.692
101 303.00 1200.00 137 225 2.000 10000.000 0.000 0.692
