# BinNR microsec tot-time (s)  O-Beam AUX Ampl(V) f(Hz) phase(deg) chi(pos)
0 0.00 1200.00 114 311 2.000 10000.000 0.000 1.296
1 3.00 1200.00 212 663 2.000 10000.000 0.000 1.296
2 6.00 1200.00 280 763 2.000 10000.000 0.000 1.296
3 9.00 1200.00 273 760 2.000 10000.000 0.000 1.296
4 12.00 1200.00 300 857 2.000 10000.000 0.000 1.296
5 15.00 1200.00 300 914 2.000 10000.000 0.000 1.296
6 18.00 1200.00 315 982 2.000 10000.000 0.000 1.296
7 21.00 1200.00 312 1099 2.000 10000.000 0.000 1.296
8 24.00 1200.00 356 1169 2.000 10000.000 0.000 1.296
9 27.00 1200.00 375 1138 2.000 10000.000 0.000 1.296
10 30.00 1200.00 398 1195 2.000 10000.000 0.000 1.296
11 33.00 1200.00 365 1225 2.000 10000.000 0.000 1.296
12 36.00 1200.00 369 1189 2.000 10000.000 0.000 1.296
13 39.00 1200.00 392 1221 2.000 10000.000 0.000 1.296
14 42.00 1200.00 409 1219 2.000 10000.000 0.000 1.296
15 45.00 1200.00 392 1268 2.000 10000.000 0.000 1.296
16 48.00 1200.00 377 1297 2.000 10000.000 0.000 1.296
17 51.00 1200.00 377 1167 2.000 10000.000 0.000 1.296
18 54.00 1200.00 349 1210 2.000 10000.000 0.000 1.296
19 57.00 1200.00 354 1215 2.000 10000.000 0.000 1.296
20 60.00 1200.00 348 1226 2.000 10000.000 0.000 1.296
21 63.00 1200.00 335 1118 2.000 10000.000 0.000 1.296
22 66.00 1200.00 352 1228 2.000 10000.000 0.000 1.296
23 69.00 1200.00 324 1102 2.000 10000.000 0.000 1.296
24 72.00 1200.00 320 1082 2.000 10000.000 0.000 1.296
25 75.00 1200.00 247 1109 2.000 10000.000 0.000 1.296
26 78.00 1200.00 279 937 2.000 10000.000 0.000 1.296
27 81.00 1200.00 245 877 2.000 10000.000 0.000 1.296
28 84.00 1200.00 249 833 2.000 10000.000 0.000 1.296
29 87.00 1200.00 201 763 2.000 10000.000 0.000 1.296
30 90.00 1200.00 209 727 2.000 10000.000 0.000 1.296
31 93.00 1200.00 250 632 2.000 10000.000 0.000 1.296
32 96.00 1200.00 247 631 2.000 10000.000 0.000 1.296
33 99.00 1200.00 226 630 2.000 10000.000 0.000 1.296
34 102.00 1200.00 256 655 2.000 10000.000 0.000 1.296
35 105.00 1200.00 290 643 2.000 10000.000 0.000 1.296
36 108.00 1200.00 274 700 2.000 10000.000 0.000 1.296
37 111.00 1200.00 283 722 2.000 10000.000 0.000 1.296
38 114.00 1200.00 299 838 2.000 10000.000 0.000 1.296
39 117.00 1200.00 343 986 2.000 10000.000 0.000 1.296
40 120.00 1200.00 335 939 2.000 10000.000 0.000 1.296
41 123.00 1200.00 364 989 2.000 10000.000 0.000 1.296
42 126.00 1200.00 372 1066 2.000 10000.000 0.000 1.296
43 129.00 1200.00 396 1146 2.000 10000.000 0.000 1.296
44 132.00 1200.00 410 1150 2.000 10000.000 0.000 1.296
45 135.00 1200.00 374 1207 2.000 10000.000 0.000 1.296
46 138.00 1200.00 359 1205 2.000 10000.000 0.000 1.296
47 141.00 1200.00 359 1252 2.000 10000.000 0.000 1.296
48 144.00 1200.00 381 1243 2.000 10000.000 0.000 1.296
49 147.00 1200.00 399 1199 2.000 10000.000 0.000 1.296
50 150.00 1200.00 432 1240 2.000 10000.000 0.000 1.296
51 153.00 1200.00 390 1191 2.000 10000.000 0.000 1.296
52 156.00 1200.00 407 1242 2.000 10000.000 0.000 1.296
53 159.00 1200.00 389 1205 2.000 10000.000 0.000 1.296
54 162.00 1200.00 389 1216 2.000 10000.000 0.000 1.296
55 165.00 1200.00 359 1156 2.000 10000.000 0.000 1.296
56 168.00 1200.00 345 1188 2.000 10000.000 0.000 1.296
57 171.00 1200.00 321 1175 2.000 10000.000 0.000 1.296
58 174.00 1200.00 308 1053 2.000 10000.000 0.000 1.296
59 177.00 1200.00 317 1022 2.000 10000.000 0.000 1.296
60 180.00 1200.00 275 1028 2.000 10000.000 0.000 1.296
61 183.00 1200.00 258 866 2.000 10000.000 0.000 1.296
62 186.00 1200.00 249 736 2.000 10000.000 0.000 1.296
63 189.00 1200.00 212 697 2.000 10000.000 0.000 1.296
64 192.00 1200.00 238 641 2.000 10000.000 0.000 1.296
65 195.00 1200.00 251 678 2.000 10000.000 0.000 1.296
66 198.00 1200.00 222 665 2.000 10000.000 0.000 1.296
67 201.00 1200.00 263 621 2.000 10000.000 0.000 1.296
68 204.00 1200.00 242 651 2.000 10000.000 0.000 1.296
69 207.00 1200.00 268 690 2.000 10000.000 0.000 1.296
70 210.00 1200.00 285 740 2.000 10000.000 0.000 1.296
71 213.00 1200.00 291 764 2.000 10000.000 0.000 1.296
72 216.00 1200.00 304 863 2.000 10000.000 0.000 1.296
73 219.00 1200.00 309 932 2.000 10000.000 0.000 1.296
74 222.00 1200.00 327 1003 2.000 10000.000 0.000 1.296
75 225.00 1200.00 341 1077 2.000 10000.000 0.000 1.296
76 228.00 1200.00 355 1137 2.000 10000.000 0.000 1.296
77 231.00 1200.00 362 1096 2.000 10000.000 0.000 1.296
78 234.00 1200.00 395 1138 2.000 10000.000 0.000 1.296
79 237.00 1200.00 338 1227 2.000 10000.000 0.000 1.296
80 240.00 1200.00 395 1306 2.000 10000.000 0.000 1.296
81 243.00 1200.00 388 1215 2.000 10000.000 0.000 1.296
82 246.00 1200.00 420 1268 2.000 10000.000 0.000 1.296
83 249.00 1200.00 391 1246 2.000 10000.000 0.000 1.296
84 252.00 1200.00 393 1260 2.000 10000.000 0.000 1.296
85 255.00 1200.00 389 1294 2.000 10000.000 0.000 1.296
86 258.00 1200.00 401 1282 2.000 10000.000 0.000 1.296
87 261.00 1200.00 364 1261 2.000 10000.000 0.000 1.296
88 264.00 1200.00 363 1240 2.000 10000.000 0.000 1.296
89 267.00 1200.00 326 1156 2.000 10000.000 0.000 1.296
90 270.00 1200.00 344 1144 2.000 10000.000 0.000 1.296
91 273.00 1200.00 288 1087 2.000 10000.000 0.000 1.296
92 276.00 1200.00 307 1033 2.000 10000.000 0.000 1.296
93 279.00 1200.00 262 937 2.000 10000.000 0.000 1.296
94 282.00 1200.00 273 865 2.000 10000.000 0.000 1.296
95 285.00 1200.00 252 797 2.000 10000.000 0.000 1.296
96 288.00 1200.00 228 735 2.000 10000.000 0.000 1.296
97 291.00 1200.00 227 690 2.000 10000.000 0.000 1.296
98 294.00 1200.00 215 656 2.000 10000.000 0.000 1.296
99 297.00 1200.00 223 624 2.000 10000.000 0.000 1.296
100 300.00 1200.00 213 681 2.000 10000.000 0.000 1.296
101 303.00 1200.00 213 532 2.000 10000.000 0.000 1.296
