# BinNR microsec tot-time (s)  O-Beam AUX Ampl(V) f(Hz) phase(deg) chi(pos)
0 0.00 1200.03 118 278 2.000 10000.000 0.000 -0.901
1 3.00 1200.03 231 564 2.000 10000.000 0.000 -0.901
2 6.00 1200.03 269 579 2.000 10000.000 0.000 -0.901
3 9.00 1200.03 260 659 2.000 10000.000 0.000 -0.901
4 12.00 1200.03 297 713 2.000 10000.000 0.000 -0.901
5 15.00 1200.03 288 768 2.000 10000.000 0.000 -0.901
6 18.00 1200.03 293 906 2.000 10000.000 0.000 -0.901
7 21.00 1200.03 338 922 2.000 10000.000 0.000 -0.901
8 24.00 1200.03 375 1003 2.000 10000.000 0.000 -0.901
9 27.00 1200.03 336 1115 2.000 10000.000 0.000 -0.901
10 30.00 1200.03 356 1139 2.000 10000.000 0.000 -0.901
11 33.00 1200.03 383 1134 2.000 10000.000 0.000 -0.901
12 36.00 1200.03 364 1156 2.000 10000.000 0.000 -0.901
13 39.00 1200.03 401 1139 2.000 10000.000 0.000 -0.901
14 42.00 1200.03 413 1150 2.000 10000.000 0.000 -0.901
15 45.00 1200.03 388 1218 2.000 10000.000 0.000 -0.901
16 48.00 1200.03 391 1299 2.000 10000.000 0.000 -0.901
17 51.00 1200.03 364 1142 2.000 10000.000 0.000 -0.901
18 54.00 1200.03 354 1210 2.000 10000.000 0.000 -0.901
19 57.00 1200.03 362 1142 2.000 10000.000 0.000 -0.901
20 60.00 1200.03 358 1200 2.000 10000.000 0.000 -0.901
21 63.00 1200.03 336 1161 2.000 10000.000 0.000 -0.901
22 66.00 1200.03 301 1104 2.000 10000.000 0.000 -0.901
23 69.00 1200.03 280 1042 2.000 10000.000 0.000 -0.901
24 72.00 1200.03 305 964 2.000 10000.000 0.000 -0.901
25 75.00 1200.03 269 875 2.000 10000.000 0.000 -0.901
26 78.00 1200.03 267 839 2.000 10000.000 0.000 -0.901
27 81.00 1200.03 210 749 2.000 10000.000 0.000 -0.901
28 84.00 1200.03 253 723 2.000 10000.000 0.000 -0.901
29 87.00 1200.03 212 608 2.000 10000.000 0.000 -0.901
30 90.00 1200.03 226 581 2.000 10000.000 0.000 -0.901
31 93.00 1200.03 221 543 2.000 10000.000 0.000 -0.901
32 96.00 1200.03 233 499 2.000 10000.000 0.000 -0.901
33 99.00 1200.03 218 490 2.000 10000.000 0.000 -0.901
34 102.00 1200.03 234 545 2.000 10000.000 0.000 -0.901
35 105.00 1200.03 233 568 2.000 10000.000 0.000 -0.901
36 108.00 1200.03 258 599 2.000 10000.000 0.000 -0.901
37 111.00 1200.03 287 583 2.000 10000.000 0.000 -0.901
38 114.00 1200.03 301 673 2.000 10000.000 0.000 -0.901
39 117.00 1200.03 293 741 2.000 10000.000 0.000 -0.901
40 120.00 1200.03 327 802 2.000 10000.000 0.000 -0.901
41 123.00 1200.03 295 908 2.000 10000.000 0.000 -0.901
42 126.00 1200.03 331 980 2.000 10000.000 0.000 -0.901
43 129.00 1200.03 385 1060 2.000 10000.000 0.000 -0.901
44 132.00 1200.03 377 1086 2.000 10000.000 0.000 -0.901
45 135.00 1200.03 386 1137 2.000 10000.000 0.000 -0.901
46 138.00 1200.03 367 1211 2.000 10000.000 0.000 -0.901
47 141.00 1200.03 401 1225 2.000 10000.000 0.000 -0.901
48 144.00 1200.03 368 1249 2.000 10000.000 0.000 -0.901
49 147.00 1200.03 376 1143 2.000 10000.000 0.000 -0.901
50 150.00 1200.03 409 1195 2.000 10000.000 0.000 -0.901
51 153.00 1200.03 384 1208 2.000 10000.000 0.000 -0.901
52 156.00 1200.03 373 1229 2.000 10000.000 0.000 -0.901
53 159.00 1200.03 379 1147 2.000 10000.000 0.000 -0.901
54 162.00 1200.03 350 1207 2.000 10000.000 0.000 -0.901
55 165.00 1200.03 346 1059 2.000 10000.000 0.000 -0.901
56 168.00 1200.03 338 1138 2.000 10000.000 0.000 -0.901
57 171.00 1200.03 317 1002 2.000 10000.000 0.000 -0.901
58 174.00 1200.03 303 965 2.000 10000.000 0.000 -0.901
59 177.00 1200.03 286 816 2.000 10000.000 0.000 -0.901
60 180.00 1200.03 235 794 2.000 10000.000 0.000 -0.901
61 183.00 1200.03 221 667 2.000 10000.000 0.000 -0.901
62 186.00 1200.03 238 666 2.000 10000.000 0.000 -0.901
63 189.00 1200.03 249 574 2.000 10000.000 0.000 -0.901
64 192.00 1200.03 196 540 2.000 10000.000 0.000 -0.901
65 195.00 1200.03 217 520 2.000 10000.000 0.000 -0.901
66 198.00 1200.03 241 537 2.000 10000.000 0.000 -0.901
67 201.00 1200.03 205 528 2.000 10000.000 0.000 -0.901
68 204.00 1200.03 199 529 2.000 10000.000 0.000 -0.901
69 207.00 1200.03 252 526 2.000 10000.000 0.000 -0.901
70 210.00 1200.03 232 595 2.000 10000.000 0.000 -0.901
71 213.00 1200.03 265 624 2.000 10000.000 0.000 -0.901
72 216.00 1200.03 281 713 2.000 10000.000 0.000 -0.901
73 219.00 1200.03 303 803 2.000 10000.000 0.000 -0.901
74 222.00 1200.03 322 824 2.000 10000.000 0.000 -0.901
75 225.00 1200.03 308 931 2.000 10000.000 0.000 -0.901
76 228.00 1200.03 329 1092 2.000 10000.000 0.000 -0.901
77 231.00 1200.03 333 1027 2.000 10000.000 0.000 -0.901
78 234.00 1200.03 383 1137 2.000 10000.000 0.000 -0.901
79 237.00 1200.03 349 1161 2.000 10000.000 0.000 -0.901
80 240.00 1200.03 371 1244 2.000 10000.000 0.000 -0.901
81 243.00 1200.03 404 1196 2.000 10000.000 0.000 -0.901
82 246.00 1200.03 376 1226 2.000 10000.000 0.000 -0.901
83 249.00 1200.03 367 1187 2.000 10000.000 0.000 -0.901
84 252.00 1200.03 370 1218 2.000 10000.000 0.000 -0.901
85 255.00 1200.03 400 1215 2.000 10000.000 0.000 -0.901
86 258.00 1200.03 362 1130 2.000 10000.000 0.000 -0.901
87 261.00 1200.03 389 1168 2.000 10000.000 0.000 -0.901
88 264.00 1200.03 355 1115 2.000 10000.000 0.000 -0.901
89 267.00 1200.03 328 1086 2.000 10000.000 0.000 -0.901
90 270.00 1200.03 346 1057 2.000 10000.000 0.000 -0.901
91 273.00 1200.03 261 956 2.000 10000.000 0.000 -0.901
92 276.00 1200.03 274 879 2.000 10000.000 0.000 -0.901
93 279.00 1200.03 241 758 2.000 10000.000 0.000 -0.901
94 282.00 1200.03 217 708 2.000 10000.000 0.000 -0.901
95 285.00 1200.03 217 664 2.000 10000.000 0.000 -0.901
96 288.00 1200.03 221 632 2.000 10000.000 0.000 -0.901
97 291.00 1200.03 239 597 2.000 10000.000 0.000 -0.901
98 294.00 1200.03 216 529 2.000 10000.000 0.000 -0.901
99 297.00 1200.03 224 514 2.000 10000.000 0.000 -0.901
100 300.00 1200.03 230 547 2.000 10000.000 0.000 -0.901
101 303.00 1200.03 205 407 2.000 10000.000 0.000 -0.901
