# BinNR microsec tot-time (s)  O-Beam AUX Ampl(V) f(Hz) phase(deg) chi(pos)
0 0.00 1200.02 94 170 2.000 10000.000 0.000 -1.099
1 3.00 1200.02 205 362 2.000 10000.000 0.000 -1.099
2 6.00 1200.02 191 339 2.000 10000.000 0.000 -1.099
3 9.00 1200.02 213 398 2.000 10000.000 0.000 -1.099
4 12.00 1200.02 214 448 2.000 10000.000 0.000 -1.099
5 15.00 1200.02 250 462 2.000 10000.000 0.000 -1.099
6 18.00 1200.02 234 545 2.000 10000.000 0.000 -1.099
7 21.00 1200.02 249 629 2.000 10000.000 0.000 -1.099
8 24.00 1200.02 254 732 2.000 10000.000 0.000 -1.099
9 27.00 1200.02 306 722 2.000 10000.000 0.000 -1.099
10 30.00 1200.02 315 811 2.000 10000.000 0.000 -1.099
11 33.00 1200.02 273 889 2.000 10000.000 0.000 -1.099
12 36.00 1200.02 329 949 2.000 10000.000 0.000 -1.099
13 39.00 1200.02 309 924 2.000 10000.000 0.000 -1.099
14 42.00 1200.02 309 970 2.000 10000.000 0.000 -1.099
15 45.00 1200.02 340 980 2.000 10000.000 0.000 -1.099
16 48.00 1200.02 311 887 2.000 10000.000 0.000 -1.099
17 51.00 1200.02 321 932 2.000 10000.000 0.000 -1.099
18 54.00 1200.02 314 1012 2.000 10000.000 0.000 -1.099
19 57.00 1200.02 273 866 2.000 10000.000 0.000 -1.099
20 60.00 1200.02 266 915 2.000 10000.000 0.000 -1.099
21 63.00 1200.02 223 904 2.000 10000.000 0.000 -1.099
22 66.00 1200.02 261 794 2.000 10000.000 0.000 -1.099
23 69.00 1200.02 213 679 2.000 10000.000 0.000 -1.099
24 72.00 1200.02 174 664 2.000 10000.000 0.000 -1.099
25 75.00 1200.02 194 601 2.000 10000.000 0.000 -1.099
26 78.00 1200.02 209 541 2.000 10000.000 0.000 -1.099
27 81.00 1200.02 155 465 2.000 10000.000 0.000 -1.099
28 84.00 1200.02 165 424 2.000 10000.000 0.000 -1.099
29 87.00 1200.02 167 385 2.000 10000.000 0.000 -1.099
30 90.00 1200.02 187 350 2.000 10000.000 0.000 -1.099
31 93.00 1200.02 167 301 2.000 10000.000 0.000 -1.099
32 96.00 1200.02 166 343 2.000 10000.000 0.000 -1.099
33 99.00 1200.02 208 307 2.000 10000.000 0.000 -1.099
34 102.00 1200.02 166 340 2.000 10000.000 0.000 -1.099
35 105.00 1200.02 189 358 2.000 10000.000 0.000 -1.099
36 108.00 1200.02 190 383 2.000 10000.000 0.000 -1.099
37 111.00 1200.02 216 347 2.000 10000.000 0.000 -1.099
38 114.00 1200.02 215 406 2.000 10000.000 0.000 -1.099
39 117.00 1200.02 224 424 2.000 10000.000 0.000 -1.099
40 120.00 1200.02 277 521 2.000 10000.000 0.000 -1.099
41 123.00 1200.02 277 583 2.000 10000.000 0.000 -1.099
42 126.00 1200.02 249 629 2.000 10000.000 0.000 -1.099
43 129.00 1200.02 246 722 2.000 10000.000 0.000 -1.099
44 132.00 1200.02 300 813 2.000 10000.000 0.000 -1.099
45 135.00 1200.02 287 865 2.000 10000.000 0.000 -1.099
46 138.00 1200.02 297 930 2.000 10000.000 0.000 -1.099
47 141.00 1200.02 321 933 2.000 10000.000 0.000 -1.099
48 144.00 1200.02 300 945 2.000 10000.000 0.000 -1.099
49 147.00 1200.02 292 987 2.000 10000.000 0.000 -1.099
50 150.00 1200.02 309 1076 2.000 10000.000 0.000 -1.099
51 153.00 1200.02 323 1001 2.000 10000.000 0.000 -1.099
52 156.00 1200.02 281 969 2.000 10000.000 0.000 -1.099
53 159.00 1200.02 274 964 2.000 10000.000 0.000 -1.099
54 162.00 1200.02 275 905 2.000 10000.000 0.000 -1.099
55 165.00 1200.02 257 796 2.000 10000.000 0.000 -1.099
56 168.00 1200.02 224 795 2.000 10000.000 0.000 -1.099
57 171.00 1200.02 233 707 2.000 10000.000 0.000 -1.099
58 174.00 1200.02 203 584 2.000 10000.000 0.000 -1.099
59 177.00 1200.02 193 533 2.000 10000.000 0.000 -1.099
60 180.00 1200.02 220 484 2.000 10000.000 0.000 -1.099
61 183.00 1200.02 157 412 2.000 10000.000 0.000 -1.099
62 186.00 1200.02 178 387 2.000 10000.000 0.000 -1.099
63 189.00 1200.02 173 366 2.000 10000.000 0.000 -1.099
64 192.00 1200.02 143 335 2.000 10000.000 0.000 -1.099
65 195.00 1200.02 163 303 2.000 10000.000 0.000 -1.099
66 198.00 1200.02 194 327 2.000 10000.000 0.000 -1.099
67 201.00 1200.02 171 290 2.000 10000.000 0.000 -1.099
68 204.00 1200.02 201 328 2.000 10000.000 0.000 -1.099
69 207.00 1200.02 181 331 2.000 10000.000 0.000 -1.099
70 210.00 1200.02 223 364 2.000 10000.000 0.000 -1.099
71 213.00 1200.02 214 401 2.000 10000.000 0.000 -1.099
72 216.00 1200.02 213 410 2.000 10000.000 0.000 -1.099
73 219.00 1200.02 193 484 2.000 10000.000 0.000 -1.099
74 222.00 1200.02 221 536 2.000 10000.000 0.000 -1.099
75 225.00 1200.02 237 625 2.000 10000.000 0.000 -1.099
76 228.00 1200.02 268 709 2.000 10000.000 0.000 -1.099
77 231.00 1200.02 289 773 2.000 10000.000 0.000 -1.099
78 234.00 1200.02 296 912 2.000 10000.000 0.000 -1.099
79 237.00 1200.02 300 922 2.000 10000.000 0.000 -1.099
80 240.00 1200.02 322 1013 2.000 10000.000 0.000 -1.099
81 243.00 1200.02 280 946 2.000 10000.000 0.000 -1.099
82 246.00 1200.02 307 1018 2.000 10000.000 0.000 -1.099
83 249.00 1200.02 305 1034 2.000 10000.000 0.000 -1.099
84 252.00 1200.02 326 934 2.000 10000.000 0.000 -1.099
85 255.00 1200.02 293 983 2.000 10000.000 0.000 -1.099
86 258.00 1200.02 270 990 2.000 10000.000 0.000 -1.099
87 261.00 1200.02 280 839 2.000 10000.000 0.000 -1.099
88 264.00 1200.02 253 881 2.000 10000.000 0.000 -1.099
89 267.00 1200.02 242 780 2.000 10000.000 0.000 -1.099
90 270.00 1200.02 238 696 2.000 10000.000 0.000 -1.099
91 273.00 1200.02 197 634 2.000 10000.000 0.000 -1.099
92 276.00 1200.02 206 545 2.000 10000.000 0.000 -1.099
93 279.00 1200.02 181 501 2.000 10000.000 0.000 -1.099
94 282.00 1200.02 187 416 2.000 10000.000 0.000 -1.099
95 285.00 1200.02 153 403 2.000 10000.000 0.000 -1.099
96 288.00 1200.02 174 360 2.000 10000.000 0.000 -1.099
97 291.00 1200.02 149 325 2.000 10000.000 0.000 -1.099
98 294.00 1200.02 174 345 2.000 10000.000 0.000 -1.099
99 297.00 1200.02 174 326 2.000 10000.000 0.000 -1.099
100 300.00 1200.02 188 326 2.000 10000.000 0.000 -1.099
101 303.00 1200.02 154 275 2.000 10000.000 0.000 -1.099
