# BinNR microsec tot-time (s)  O-Beam AUX Ampl(V) f(Hz) phase(deg) chi(pos)
0 0.00 1200.00 159 484 2.000 10000.000 0.000 1.505
1 3.00 1200.00 327 967 2.000 10000.000 0.000 1.505
2 6.00 1200.00 377 1022 2.000 10000.000 0.000 1.505
3 9.00 1200.00 338 1115 2.000 10000.000 0.000 1.505
4 12.00 1200.00 367 1094 2.000 10000.000 0.000 1.505
5 15.00 1200.00 367 1172 2.000 10000.000 0.000 1.505
6 18.00 1200.00 372 1228 2.000 10000.000 0.000 1.505
7 21.00 1200.00 388 1253 2.000 10000.000 0.000 1.505
8 24.00 1200.00 399 1314 2.000 10000.000 0.000 1.505
9 27.00 1200.00 395 1210 2.000 10000.000 0.000 1.505
10 30.00 1200.00 376 1268 2.000 10000.000 0.000 1.505
11 33.00 1200.00 420 1285 2.000 10000.000 0.000 1.505
12 36.00 1200.00 410 1174 2.000 10000.000 0.000 1.505
13 39.00 1200.00 407 1212 2.000 10000.000 0.000 1.505
14 42.00 1200.00 422 1258 2.000 10000.000 0.000 1.505
15 45.00 1200.00 414 1242 2.000 10000.000 0.000 1.505
16 48.00 1200.00 429 1158 2.000 10000.000 0.000 1.505
17 51.00 1200.00 440 1204 2.000 10000.000 0.000 1.505
18 54.00 1200.00 399 1143 2.000 10000.000 0.000 1.505
19 57.00 1200.00 378 1223 2.000 10000.000 0.000 1.505
20 60.00 1200.00 464 1285 2.000 10000.000 0.000 1.505
21 63.00 1200.00 423 1308 2.000 10000.000 0.000 1.505
22 66.00 1200.00 426 1222 2.000 10000.000 0.000 1.505
23 69.00 1200.00 362 1277 2.000 10000.000 0.000 1.505
24 72.00 1200.00 364 1245 2.000 10000.000 0.000 1.505
25 75.00 1200.00 362 1179 2.000 10000.000 0.000 1.505
26 78.00 1200.00 358 1232 2.000 10000.000 0.000 1.505
27 81.00 1200.00 334 1082 2.000 10000.000 0.000 1.505
28 84.00 1200.00 327 1076 2.000 10000.000 0.000 1.505
29 87.00 1200.00 335 1084 2.000 10000.000 0.000 1.505
30 90.00 1200.00 354 1062 2.000 10000.000 0.000 1.505
31 93.00 1200.00 327 975 2.000 10000.000 0.000 1.505
32 96.00 1200.00 300 1001 2.000 10000.000 0.000 1.505
33 99.00 1200.00 346 996 2.000 10000.000 0.000 1.505
34 102.00 1200.00 321 956 2.000 10000.000 0.000 1.505
35 105.00 1200.00 333 928 2.000 10000.000 0.000 1.505
36 108.00 1200.00 354 1076 2.000 10000.000 0.000 1.505
37 111.00 1200.00 366 977 2.000 10000.000 0.000 1.505
38 114.00 1200.00 381 1064 2.000 10000.000 0.000 1.505
39 117.00 1200.00 377 1175 2.000 10000.000 0.000 1.505
40 120.00 1200.00 401 1263 2.000 10000.000 0.000 1.505
41 123.00 1200.00 372 1278 2.000 10000.000 0.000 1.505
42 126.00 1200.00 424 1341 2.000 10000.000 0.000 1.505
43 129.00 1200.00 432 1299 2.000 10000.000 0.000 1.505
44 132.00 1200.00 398 1296 2.000 10000.000 0.000 1.505
45 135.00 1200.00 366 1195 2.000 10000.000 0.000 1.505
46 138.00 1200.00 442 1302 2.000 10000.000 0.000 1.505
47 141.00 1200.00 423 1172 2.000 10000.000 0.000 1.505
48 144.00 1200.00 449 1234 2.000 10000.000 0.000 1.505
49 147.00 1200.00 426 1092 2.000 10000.000 0.000 1.505
50 150.00 1200.00 386 1214 2.000 10000.000 0.000 1.505
51 153.00 1200.00 394 1152 2.000 10000.000 0.000 1.505
52 156.00 1200.00 408 1254 2.000 10000.000 0.000 1.505
53 159.00 1200.00 394 1177 2.000 10000.000 0.000 1.505
54 162.00 1200.00 417 1190 2.000 10000.000 0.000 1.505
55 165.00 1200.00 417 1257 2.000 10000.000 0.000 1.505
56 168.00 1200.00 416 1370 2.000 10000.000 0.000 1.505
57 171.00 1200.00 406 1281 2.000 10000.000 0.000 1.505
58 174.00 1200.00 414 1258 2.000 10000.000 0.000 1.505
59 177.00 1200.00 336 1238 2.000 10000.000 0.000 1.505
60 180.00 1200.00 338 1189 2.000 10000.000 0.000 1.505
61 183.00 1200.00 316 1139 2.000 10000.000 0.000 1.505
62 186.00 1200.00 334 1025 2.000 10000.000 0.000 1.505
63 189.00 1200.00 316 1102 2.000 10000.000 0.000 1.505
64 192.00 1200.00 347 955 2.000 10000.000 0.000 1.505
65 195.00 1200.00 345 997 2.000 10000.000 0.000 1.505
66 198.00 1200.00 333 945 2.000 10000.000 0.000 1.505
67 201.00 1200.00 308 943 2.000 10000.000 0.000 1.505
68 204.00 1200.00 306 936 2.000 10000.000 0.000 1.505
69 207.00 1200.00 338 1023 2.000 10000.000 0.000 1.505
70 210.00 1200.00 337 1037 2.000 10000.000 0.000 1.505
71 213.00 1200.00 356 1088 2.000 10000.000 0.000 1.505
72 216.00 1200.00 362 1186 2.000 10000.000 0.000 1.505
73 219.00 1200.00 382 1190 2.000 10000.000 0.000 1.505
74 222.00 1200.00 402 1262 2.000 10000.000 0.000 1.505
75 225.00 1200.00 398 1215 2.000 10000.000 0.000 1.505
76 228.00 1200.00 407 1327 2.000 10000.000 0.000 1.505
77 231.00 1200.00 420 1273 2.000 10000.000 0.000 1.505
78 234.00 1200.00 403 1314 2.000 10000.000 0.000 1.505
79 237.00 1200.00 415 1224 2.000 10000.000 0.000 1.505
80 240.00 1200.00 389 1256 2.000 10000.000 0.000 1.505
81 243.00 1200.00 395 1155 2.000 10000.000 0.000 1.505
82 246.00 1200.00 408 1181 2.000 10000.000 0.000 1.505
83 249.00 1200.00 379 1207 2.000 10000.000 0.000 1.505
84 252.00 1200.00 419 1209 2.000 10000.000 0.000 1.505
85 255.00 1200.00 423 1173 2.000 10000.000 0.000 1.505
86 258.00 1200.00 413 1278 2.000 10000.000 0.000 1.505
87 261.00 1200.00 415 1152 2.000 10000.000 0.000 1.505
88 264.00 1200.00 373 1244 2.000 10000.000 0.000 1.505
89 267.00 1200.00 424 1276 2.000 10000.000 0.000 1.505
90 270.00 1200.00 393 1290 2.000 10000.000 0.000 1.505
91 273.00 1200.00 378 1252 2.000 10000.000 0.000 1.505
92 276.00 1200.00 377 1233 2.000 10000.000 0.000 1.505
93 279.00 1200.00 339 1226 2.000 10000.000 0.000 1.505
94 282.00 1200.00 376 1213 2.000 10000.000 0.000 1.505
95 285.00 1200.00 324 1103 2.000 10000.000 0.000 1.505
96 288.00 1200.00 397 1066 2.000 10000.000 0.000 1.505
97 291.00 1200.00 289 991 2.000 10000.000 0.000 1.505
98 294.00 1200.00 316 945 2.000 10000.000 0.000 1.505
99 297.00 1200.00 300 912 2.000 10000.000 0.000 1.505
100 300.00 1200.00 291 975 2.000 10000.000 0.000 1.505
101 303.00 1200.00 295 808 2.000 10000.000 0.000 1.505
