# BinNR microsec tot-time (s)  O-Beam AUX Ampl(V) f(Hz) phase(deg) chi(pos)
0 0.00 1200.02 83 86 3.250 10000.000 0.000 -0.439
1 3.00 1200.02 159 201 3.250 10000.000 0.000 -0.439
2 6.00 1200.02 168 222 3.250 10000.000 0.000 -0.439
3 9.00 1200.02 158 227 3.250 10000.000 0.000 -0.439
4 12.00 1200.02 167 197 3.250 10000.000 0.000 -0.439
5 15.00 1200.02 148 199 3.250 10000.000 0.000 -0.439
6 18.00 1200.02 141 182 3.250 10000.000 0.000 -0.439
7 21.00 1200.02 153 144 3.250 10000.000 0.000 -0.439
8 24.00 1200.02 165 131 3.250 10000.000 0.000 -0.439
9 27.00 1200.02 175 128 3.250 10000.000 0.000 -0.439
10 30.00 1200.02 187 125 3.250 10000.000 0.000 -0.439
11 33.00 1200.02 170 124 3.250 10000.000 0.000 -0.439
12 36.00 1200.02 177 118 3.250 10000.000 0.000 -0.439
13 39.00 1200.02 178 131 3.250 10000.000 0.000 -0.439
14 42.00 1200.02 153 173 3.250 10000.000 0.000 -0.439
15 45.00 1200.02 154 212 3.250 10000.000 0.000 -0.439
16 48.00 1200.02 137 237 3.250 10000.000 0.000 -0.439
17 51.00 1200.02 96 298 3.250 10000.000 0.000 -0.439
18 54.00 1200.02 100 343 3.250 10000.000 0.000 -0.439
19 57.00 1200.02 92 433 3.250 10000.000 0.000 -0.439
20 60.00 1200.02 87 462 3.250 10000.000 0.000 -0.439
21 63.00 1200.02 79 455 3.250 10000.000 0.000 -0.439
22 66.00 1200.02 70 456 3.250 10000.000 0.000 -0.439
23 69.00 1200.02 74 392 3.250 10000.000 0.000 -0.439
24 72.00 1200.02 75 387 3.250 10000.000 0.000 -0.439
25 75.00 1200.02 70 338 3.250 10000.000 0.000 -0.439
26 78.00 1200.02 94 347 3.250 10000.000 0.000 -0.439
27 81.00 1200.02 106 338 3.250 10000.000 0.000 -0.439
28 84.00 1200.02 132 365 3.250 10000.000 0.000 -0.439
29 87.00 1200.02 150 366 3.250 10000.000 0.000 -0.439
30 90.00 1200.02 161 430 3.250 10000.000 0.000 -0.439
31 93.00 1200.02 161 433 3.250 10000.000 0.000 -0.439
32 96.00 1200.02 175 448 3.250 10000.000 0.000 -0.439
33 99.00 1200.02 172 438 3.250 10000.000 0.000 -0.439
34 102.00 1200.02 174 394 3.250 10000.000 0.000 -0.439
35 105.00 1200.02 179 324 3.250 10000.000 0.000 -0.439
36 108.00 1200.02 163 277 3.250 10000.000 0.000 -0.439
37 111.00 1200.02 153 195 3.250 10000.000 0.000 -0.439
38 114.00 1200.02 146 155 3.250 10000.000 0.000 -0.439
39 117.00 1200.02 156 138 3.250 10000.000 0.000 -0.439
40 120.00 1200.02 127 132 3.250 10000.000 0.000 -0.439
41 123.00 1200.02 151 151 3.250 10000.000 0.000 -0.439
42 126.00 1200.02 174 140 3.250 10000.000 0.000 -0.439
43 129.00 1200.02 181 182 3.250 10000.000 0.000 -0.439
44 132.00 1200.02 191 162 3.250 10000.000 0.000 -0.439
45 135.00 1200.02 171 146 3.250 10000.000 0.000 -0.439
46 138.00 1200.02 187 143 3.250 10000.000 0.000 -0.439
47 141.00 1200.02 152 109 3.250 10000.000 0.000 -0.439
48 144.00 1200.02 148 140 3.250 10000.000 0.000 -0.439
49 147.00 1200.02 128 144 3.250 10000.000 0.000 -0.439
50 150.00 1200.02 120 214 3.250 10000.000 0.000 -0.439
51 153.00 1200.02 98 302 3.250 10000.000 0.000 -0.439
52 156.00 1200.02 83 360 3.250 10000.000 0.000 -0.439
53 159.00 1200.02 92 388 3.250 10000.000 0.000 -0.439
54 162.00 1200.02 66 459 3.250 10000.000 0.000 -0.439
55 165.00 1200.02 71 472 3.250 10000.000 0.000 -0.439
56 168.00 1200.02 79 450 3.250 10000.000 0.000 -0.439
57 171.00 1200.02 77 357 3.250 10000.000 0.000 -0.439
58 174.00 1200.02 82 416 3.250 10000.000 0.000 -0.439
59 177.00 1200.02 83 359 3.250 10000.000 0.000 -0.439
60 180.00 1200.02 103 365 3.250 10000.000 0.000 -0.439
61 183.00 1200.02 125 308 3.250 10000.000 0.000 -0.439
62 186.00 1200.02 154 351 3.250 10000.000 0.000 -0.439
63 189.00 1200.02 140 376 3.250 10000.000 0.000 -0.439
64 192.00 1200.02 165 428 3.250 10000.000 0.000 -0.439
65 195.00 1200.02 193 448 3.250 10000.000 0.000 -0.439
66 198.00 1200.02 133 410 3.250 10000.000 0.000 -0.439
67 201.00 1200.02 185 380 3.250 10000.000 0.000 -0.439
68 204.00 1200.02 171 347 3.250 10000.000 0.000 -0.439
69 207.00 1200.02 155 269 3.250 10000.000 0.000 -0.439
70 210.00 1200.02 126 206 3.250 10000.000 0.000 -0.439
71 213.00 1200.02 153 147 3.250 10000.000 0.000 -0.439
72 216.00 1200.02 131 140 3.250 10000.000 0.000 -0.439
73 219.00 1200.02 165 134 3.250 10000.000 0.000 -0.439
74 222.00 1200.02 153 139 3.250 10000.000 0.000 -0.439
75 225.00 1200.02 167 121 3.250 10000.000 0.000 -0.439
76 228.00 1200.02 179 179 3.250 10000.000 0.000 -0.439
77 231.00 1200.02 176 162 3.250 10000.000 0.000 -0.439
78 234.00 1200.02 180 145 3.250 10000.000 0.000 -0.439
79 237.00 1200.02 177 137 3.250 10000.000 0.000 -0.439
80 240.00 1200.02 145 148 3.250 10000.000 0.000 -0.439
81 243.00 1200.02 149 104 3.250 10000.000 0.000 -0.439
82 246.00 1200.02 151 155 3.250 10000.000 0.000 -0.439
83 249.00 1200.02 150 195 3.250 10000.000 0.000 -0.439
84 252.00 1200.02 130 270 3.250 10000.000 0.000 -0.439
85 255.00 1200.02 120 353 3.250 10000.000 0.000 -0.439
86 258.00 1200.02 114 395 3.250 10000.000 0.000 -0.439
87 261.00 1200.02 134 470 3.250 10000.000 0.000 -0.439
88 264.00 1200.02 139 438 3.250 10000.000 0.000 -0.439
89 267.00 1200.02 124 461 3.250 10000.000 0.000 -0.439
90 270.00 1200.02 125 471 3.250 10000.000 0.000 -0.439
91 273.00 1200.02 119 405 3.250 10000.000 0.000 -0.439
92 276.00 1200.02 132 394 3.250 10000.000 0.000 -0.439
93 279.00 1200.02 121 357 3.250 10000.000 0.000 -0.439
94 282.00 1200.02 121 372 3.250 10000.000 0.000 -0.439
95 285.00 1200.02 121 371 3.250 10000.000 0.000 -0.439
96 288.00 1200.02 99 375 3.250 10000.000 0.000 -0.439
97 291.00 1200.02 107 392 3.250 10000.000 0.000 -0.439
98 294.00 1200.02 87 428 3.250 10000.000 0.000 -0.439
99 297.00 1200.02 72 450 3.250 10000.000 0.000 -0.439
100 300.00 1200.02 91 418 3.250 10000.000 0.000 -0.439
101 303.00 1200.02 99 362 3.250 10000.000 0.000 -0.439
102 306.00 1200.02 94 292 3.250 10000.000 0.000 -0.439
103 309.00 1200.02 96 250 3.250 10000.000 0.000 -0.439
104 312.00 1200.02 137 189 3.250 10000.000 0.000 -0.439
105 315.00 1200.02 133 127 3.250 10000.000 0.000 -0.439
106 318.00 1200.02 162 138 3.250 10000.000 0.000 -0.439
107 321.00 1200.02 154 149 3.250 10000.000 0.000 -0.439
108 324.00 1200.02 152 165 3.250 10000.000 0.000 -0.439
109 327.00 1200.02 181 149 3.250 10000.000 0.000 -0.439
110 330.00 1200.02 186 146 3.250 10000.000 0.000 -0.439
111 333.00 1200.02 160 167 3.250 10000.000 0.000 -0.439
112 336.00 1200.02 139 138 3.250 10000.000 0.000 -0.439
113 339.00 1200.02 154 122 3.250 10000.000 0.000 -0.439
114 342.00 1200.02 145 129 3.250 10000.000 0.000 -0.439
115 345.00 1200.02 179 139 3.250 10000.000 0.000 -0.439
116 348.00 1200.02 155 158 3.250 10000.000 0.000 -0.439
117 351.00 1200.02 143 218 3.250 10000.000 0.000 -0.439
118 354.00 1200.02 149 293 3.250 10000.000 0.000 -0.439
119 357.00 1200.02 165 337 3.250 10000.000 0.000 -0.439
120 360.00 1200.02 165 425 3.250 10000.000 0.000 -0.439
121 363.00 1200.02 179 447 3.250 10000.000 0.000 -0.439
122 366.00 1200.02 182 471 3.250 10000.000 0.000 -0.439
123 369.00 1200.02 193 397 3.250 10000.000 0.000 -0.439
124 372.00 1200.02 169 392 3.250 10000.000 0.000 -0.439
125 375.00 1200.02 184 327 3.250 10000.000 0.000 -0.439
126 378.00 1200.02 145 343 3.250 10000.000 0.000 -0.439
127 381.00 1200.02 114 337 3.250 10000.000 0.000 -0.439
128 384.00 1200.02 105 379 3.250 10000.000 0.000 -0.439
129 387.00 1200.02 89 373 3.250 10000.000 0.000 -0.439
130 390.00 1200.02 105 409 3.250 10000.000 0.000 -0.439
131 393.00 1200.02 82 415 3.250 10000.000 0.000 -0.439
132 396.00 1200.02 83 421 3.250 10000.000 0.000 -0.439
133 399.00 1200.02 86 423 3.250 10000.000 0.000 -0.439
134 402.00 1200.02 73 357 3.250 10000.000 0.000 -0.439
135 405.00 1200.02 74 371 3.250 10000.000 0.000 -0.439
136 408.00 1200.02 83 266 3.250 10000.000 0.000 -0.439
137 411.00 1200.02 92 205 3.250 10000.000 0.000 -0.439
138 414.00 1200.02 90 171 3.250 10000.000 0.000 -0.439
139 417.00 1200.02 120 149 3.250 10000.000 0.000 -0.439
140 420.00 1200.02 125 170 3.250 10000.000 0.000 -0.439
141 423.00 1200.02 144 170 3.250 10000.000 0.000 -0.439
