# BinNR microsec tot-time (s)  O-Beam AUX Ampl(V) f(Hz) phase(deg) chi(pos)
0 0.00 1200.01 116 127 2.300 10000.000 0.000 0.648
1 3.00 1200.01 210 242 2.300 10000.000 0.000 0.648
2 6.00 1200.01 210 258 2.300 10000.000 0.000 0.648
3 9.00 1200.01 184 270 2.300 10000.000 0.000 0.648
4 12.00 1200.01 172 254 2.300 10000.000 0.000 0.648
5 15.00 1200.01 198 221 2.300 10000.000 0.000 0.648
6 18.00 1200.01 217 191 2.300 10000.000 0.000 0.648
7 21.00 1200.01 231 171 2.300 10000.000 0.000 0.648
8 24.00 1200.01 230 160 2.300 10000.000 0.000 0.648
9 27.00 1200.01 222 156 2.300 10000.000 0.000 0.648
10 30.00 1200.01 235 163 2.300 10000.000 0.000 0.648
11 33.00 1200.01 232 144 2.300 10000.000 0.000 0.648
12 36.00 1200.01 239 159 2.300 10000.000 0.000 0.648
13 39.00 1200.01 198 197 2.300 10000.000 0.000 0.648
14 42.00 1200.01 172 195 2.300 10000.000 0.000 0.648
15 45.00 1200.01 187 247 2.300 10000.000 0.000 0.648
16 48.00 1200.01 165 304 2.300 10000.000 0.000 0.648
17 51.00 1200.01 136 376 2.300 10000.000 0.000 0.648
18 54.00 1200.01 118 406 2.300 10000.000 0.000 0.648
19 57.00 1200.01 107 451 2.300 10000.000 0.000 0.648
20 60.00 1200.01 101 547 2.300 10000.000 0.000 0.648
21 63.00 1200.01 101 559 2.300 10000.000 0.000 0.648
22 66.00 1200.01 106 538 2.300 10000.000 0.000 0.648
23 69.00 1200.01 88 556 2.300 10000.000 0.000 0.648
24 72.00 1200.01 86 526 2.300 10000.000 0.000 0.648
25 75.00 1200.01 117 556 2.300 10000.000 0.000 0.648
26 78.00 1200.01 133 551 2.300 10000.000 0.000 0.648
27 81.00 1200.01 146 552 2.300 10000.000 0.000 0.648
28 84.00 1200.01 167 607 2.300 10000.000 0.000 0.648
29 87.00 1200.01 163 520 2.300 10000.000 0.000 0.648
30 90.00 1200.01 164 517 2.300 10000.000 0.000 0.648
31 93.00 1200.01 199 537 2.300 10000.000 0.000 0.648
32 96.00 1200.01 208 508 2.300 10000.000 0.000 0.648
33 99.00 1200.01 240 466 2.300 10000.000 0.000 0.648
34 102.00 1200.01 224 454 2.300 10000.000 0.000 0.648
35 105.00 1200.01 195 356 2.300 10000.000 0.000 0.648
36 108.00 1200.01 227 309 2.300 10000.000 0.000 0.648
37 111.00 1200.01 204 229 2.300 10000.000 0.000 0.648
38 114.00 1200.01 217 167 2.300 10000.000 0.000 0.648
39 117.00 1200.01 193 156 2.300 10000.000 0.000 0.648
40 120.00 1200.01 219 137 2.300 10000.000 0.000 0.648
41 123.00 1200.01 227 95 2.300 10000.000 0.000 0.648
42 126.00 1200.01 214 115 2.300 10000.000 0.000 0.648
43 129.00 1200.01 221 118 2.300 10000.000 0.000 0.648
44 132.00 1200.01 227 107 2.300 10000.000 0.000 0.648
45 135.00 1200.01 225 100 2.300 10000.000 0.000 0.648
46 138.00 1200.01 222 119 2.300 10000.000 0.000 0.648
47 141.00 1200.01 196 141 2.300 10000.000 0.000 0.648
48 144.00 1200.01 163 153 2.300 10000.000 0.000 0.648
49 147.00 1200.01 170 209 2.300 10000.000 0.000 0.648
50 150.00 1200.01 141 234 2.300 10000.000 0.000 0.648
51 153.00 1200.01 142 344 2.300 10000.000 0.000 0.648
52 156.00 1200.01 120 390 2.300 10000.000 0.000 0.648
53 159.00 1200.01 106 465 2.300 10000.000 0.000 0.648
54 162.00 1200.01 96 512 2.300 10000.000 0.000 0.648
55 165.00 1200.01 99 543 2.300 10000.000 0.000 0.648
56 168.00 1200.01 96 556 2.300 10000.000 0.000 0.648
57 171.00 1200.01 109 567 2.300 10000.000 0.000 0.648
58 174.00 1200.01 101 546 2.300 10000.000 0.000 0.648
59 177.00 1200.01 111 518 2.300 10000.000 0.000 0.648
60 180.00 1200.01 124 553 2.300 10000.000 0.000 0.648
61 183.00 1200.01 150 558 2.300 10000.000 0.000 0.648
62 186.00 1200.01 156 545 2.300 10000.000 0.000 0.648
63 189.00 1200.01 176 549 2.300 10000.000 0.000 0.648
64 192.00 1200.01 193 589 2.300 10000.000 0.000 0.648
65 195.00 1200.01 192 520 2.300 10000.000 0.000 0.648
66 198.00 1200.01 224 574 2.300 10000.000 0.000 0.648
67 201.00 1200.01 204 439 2.300 10000.000 0.000 0.648
68 204.00 1200.01 225 425 2.300 10000.000 0.000 0.648
69 207.00 1200.01 202 338 2.300 10000.000 0.000 0.648
70 210.00 1200.01 234 269 2.300 10000.000 0.000 0.648
71 213.00 1200.01 216 192 2.300 10000.000 0.000 0.648
72 216.00 1200.01 221 151 2.300 10000.000 0.000 0.648
73 219.00 1200.01 214 128 2.300 10000.000 0.000 0.648
74 222.00 1200.01 217 119 2.300 10000.000 0.000 0.648
75 225.00 1200.01 247 106 2.300 10000.000 0.000 0.648
76 228.00 1200.01 241 96 2.300 10000.000 0.000 0.648
77 231.00 1200.01 194 103 2.300 10000.000 0.000 0.648
78 234.00 1200.01 217 107 2.300 10000.000 0.000 0.648
79 237.00 1200.01 206 97 2.300 10000.000 0.000 0.648
80 240.00 1200.01 194 105 2.300 10000.000 0.000 0.648
81 243.00 1200.01 176 128 2.300 10000.000 0.000 0.648
82 246.00 1200.01 171 171 2.300 10000.000 0.000 0.648
83 249.00 1200.01 157 224 2.300 10000.000 0.000 0.648
84 252.00 1200.01 173 293 2.300 10000.000 0.000 0.648
85 255.00 1200.01 167 373 2.300 10000.000 0.000 0.648
86 258.00 1200.01 169 421 2.300 10000.000 0.000 0.648
87 261.00 1200.01 153 503 2.300 10000.000 0.000 0.648
88 264.00 1200.01 144 512 2.300 10000.000 0.000 0.648
89 267.00 1200.01 160 563 2.300 10000.000 0.000 0.648
90 270.00 1200.01 150 577 2.300 10000.000 0.000 0.648
91 273.00 1200.01 169 548 2.300 10000.000 0.000 0.648
92 276.00 1200.01 151 575 2.300 10000.000 0.000 0.648
93 279.00 1200.01 136 517 2.300 10000.000 0.000 0.648
94 282.00 1200.01 162 531 2.300 10000.000 0.000 0.648
95 285.00 1200.01 147 507 2.300 10000.000 0.000 0.648
96 288.00 1200.01 139 589 2.300 10000.000 0.000 0.648
97 291.00 1200.01 130 598 2.300 10000.000 0.000 0.648
98 294.00 1200.01 121 538 2.300 10000.000 0.000 0.648
99 297.00 1200.01 131 528 2.300 10000.000 0.000 0.648
100 300.00 1200.01 111 542 2.300 10000.000 0.000 0.648
101 303.00 1200.01 141 425 2.300 10000.000 0.000 0.648
102 306.00 1200.01 130 332 2.300 10000.000 0.000 0.648
103 309.00 1200.01 149 265 2.300 10000.000 0.000 0.648
104 312.00 1200.01 123 247 2.300 10000.000 0.000 0.648
105 315.00 1200.01 189 167 2.300 10000.000 0.000 0.648
106 318.00 1200.01 162 135 2.300 10000.000 0.000 0.648
107 321.00 1200.01 216 111 2.300 10000.000 0.000 0.648
108 324.00 1200.01 205 99 2.300 10000.000 0.000 0.648
109 327.00 1200.01 192 95 2.300 10000.000 0.000 0.648
110 330.00 1200.01 208 85 2.300 10000.000 0.000 0.648
111 333.00 1200.01 221 107 2.300 10000.000 0.000 0.648
112 336.00 1200.01 207 108 2.300 10000.000 0.000 0.648
113 339.00 1200.01 210 127 2.300 10000.000 0.000 0.648
114 342.00 1200.01 185 140 2.300 10000.000 0.000 0.648
115 345.00 1200.01 189 174 2.300 10000.000 0.000 0.648
116 348.00 1200.01 216 206 2.300 10000.000 0.000 0.648
117 351.00 1200.01 199 277 2.300 10000.000 0.000 0.648
118 354.00 1200.01 239 366 2.300 10000.000 0.000 0.648
119 357.00 1200.01 226 468 2.300 10000.000 0.000 0.648
120 360.00 1200.01 210 542 2.300 10000.000 0.000 0.648
121 363.00 1200.01 205 495 2.300 10000.000 0.000 0.648
122 366.00 1200.01 240 629 2.300 10000.000 0.000 0.648
123 369.00 1200.01 197 580 2.300 10000.000 0.000 0.648
124 372.00 1200.01 228 567 2.300 10000.000 0.000 0.648
125 375.00 1200.01 222 532 2.300 10000.000 0.000 0.648
126 378.00 1200.01 158 557 2.300 10000.000 0.000 0.648
127 381.00 1200.01 174 553 2.300 10000.000 0.000 0.648
128 384.00 1200.01 147 594 2.300 10000.000 0.000 0.648
129 387.00 1200.01 134 559 2.300 10000.000 0.000 0.648
130 390.00 1200.01 124 541 2.300 10000.000 0.000 0.648
131 393.00 1200.01 117 539 2.300 10000.000 0.000 0.648
132 396.00 1200.01 97 541 2.300 10000.000 0.000 0.648
133 399.00 1200.01 84 488 2.300 10000.000 0.000 0.648
134 402.00 1200.01 92 450 2.300 10000.000 0.000 0.648
135 405.00 1200.01 96 366 2.300 10000.000 0.000 0.648
136 408.00 1200.01 118 327 2.300 10000.000 0.000 0.648
137 411.00 1200.01 103 257 2.300 10000.000 0.000 0.648
138 414.00 1200.01 117 241 2.300 10000.000 0.000 0.648
139 417.00 1200.01 150 194 2.300 10000.000 0.000 0.648
140 420.00 1200.01 139 229 2.300 10000.000 0.000 0.648
141 423.00 1200.01 165 208 2.300 10000.000 0.000 0.648
