# BinNR microsec tot-time (s)  O-Beam AUX Ampl(V) f(Hz) phase(deg) chi(pos)
0 0.00 1200.01 92 300 0.306 10000.000 0.000 -0.945
1 3.00 1200.01 181 581 0.306 10000.000 0.000 -0.945
2 6.00 1200.01 168 562 0.306 10000.000 0.000 -0.945
3 9.00 1200.01 169 529 0.306 10000.000 0.000 -0.945
4 12.00 1200.01 157 596 0.306 10000.000 0.000 -0.945
5 15.00 1200.01 140 535 0.306 10000.000 0.000 -0.945
6 18.00 1200.01 150 553 0.306 10000.000 0.000 -0.945
7 21.00 1200.01 155 598 0.306 10000.000 0.000 -0.945
8 24.00 1200.01 151 559 0.306 10000.000 0.000 -0.945
9 27.00 1200.01 136 551 0.306 10000.000 0.000 -0.945
10 30.00 1200.01 155 583 0.306 10000.000 0.000 -0.945
11 33.00 1200.01 148 585 0.306 10000.000 0.000 -0.945
12 36.00 1200.01 178 568 0.306 10000.000 0.000 -0.945
13 39.00 1200.01 175 542 0.306 10000.000 0.000 -0.945
14 42.00 1200.01 187 560 0.306 10000.000 0.000 -0.945
15 45.00 1200.01 166 520 0.306 10000.000 0.000 -0.945
16 48.00 1200.01 179 514 0.306 10000.000 0.000 -0.945
17 51.00 1200.01 181 539 0.306 10000.000 0.000 -0.945
18 54.00 1200.01 209 504 0.306 10000.000 0.000 -0.945
19 57.00 1200.01 225 504 0.306 10000.000 0.000 -0.945
20 60.00 1200.01 186 528 0.306 10000.000 0.000 -0.945
21 63.00 1200.01 188 496 0.306 10000.000 0.000 -0.945
22 66.00 1200.01 162 504 0.306 10000.000 0.000 -0.945
23 69.00 1200.01 196 472 0.306 10000.000 0.000 -0.945
24 72.00 1200.01 176 557 0.306 10000.000 0.000 -0.945
25 75.00 1200.01 215 506 0.306 10000.000 0.000 -0.945
26 78.00 1200.01 189 504 0.306 10000.000 0.000 -0.945
27 81.00 1200.01 179 527 0.306 10000.000 0.000 -0.945
28 84.00 1200.01 184 509 0.306 10000.000 0.000 -0.945
29 87.00 1200.01 174 471 0.306 10000.000 0.000 -0.945
30 90.00 1200.01 188 524 0.306 10000.000 0.000 -0.945
31 93.00 1200.01 148 512 0.306 10000.000 0.000 -0.945
32 96.00 1200.01 157 459 0.306 10000.000 0.000 -0.945
33 99.00 1200.01 180 520 0.306 10000.000 0.000 -0.945
34 102.00 1200.01 188 581 0.306 10000.000 0.000 -0.945
35 105.00 1200.01 143 549 0.306 10000.000 0.000 -0.945
36 108.00 1200.01 148 567 0.306 10000.000 0.000 -0.945
37 111.00 1200.01 155 568 0.306 10000.000 0.000 -0.945
38 114.00 1200.01 165 590 0.306 10000.000 0.000 -0.945
39 117.00 1200.01 163 556 0.306 10000.000 0.000 -0.945
40 120.00 1200.01 161 625 0.306 10000.000 0.000 -0.945
41 123.00 1200.01 175 573 0.306 10000.000 0.000 -0.945
42 126.00 1200.01 175 581 0.306 10000.000 0.000 -0.945
43 129.00 1200.01 167 595 0.306 10000.000 0.000 -0.945
44 132.00 1200.01 157 556 0.306 10000.000 0.000 -0.945
45 135.00 1200.01 166 560 0.306 10000.000 0.000 -0.945
46 138.00 1200.01 185 549 0.306 10000.000 0.000 -0.945
47 141.00 1200.01 144 573 0.306 10000.000 0.000 -0.945
48 144.00 1200.01 201 579 0.306 10000.000 0.000 -0.945
49 147.00 1200.01 184 530 0.306 10000.000 0.000 -0.945
50 150.00 1200.01 173 544 0.306 10000.000 0.000 -0.945
51 153.00 1200.01 187 526 0.306 10000.000 0.000 -0.945
52 156.00 1200.01 204 525 0.306 10000.000 0.000 -0.945
53 159.00 1200.01 190 505 0.306 10000.000 0.000 -0.945
54 162.00 1200.01 215 502 0.306 10000.000 0.000 -0.945
55 165.00 1200.01 205 471 0.306 10000.000 0.000 -0.945
56 168.00 1200.01 196 483 0.306 10000.000 0.000 -0.945
57 171.00 1200.01 200 522 0.306 10000.000 0.000 -0.945
58 174.00 1200.01 196 530 0.306 10000.000 0.000 -0.945
59 177.00 1200.01 178 510 0.306 10000.000 0.000 -0.945
60 180.00 1200.01 176 474 0.306 10000.000 0.000 -0.945
61 183.00 1200.01 185 475 0.306 10000.000 0.000 -0.945
62 186.00 1200.01 192 515 0.306 10000.000 0.000 -0.945
63 189.00 1200.01 173 487 0.306 10000.000 0.000 -0.945
64 192.00 1200.01 200 525 0.306 10000.000 0.000 -0.945
65 195.00 1200.01 164 496 0.306 10000.000 0.000 -0.945
66 198.00 1200.01 190 600 0.306 10000.000 0.000 -0.945
67 201.00 1200.01 152 547 0.306 10000.000 0.000 -0.945
68 204.00 1200.01 158 522 0.306 10000.000 0.000 -0.945
69 207.00 1200.01 158 497 0.306 10000.000 0.000 -0.945
70 210.00 1200.01 160 593 0.306 10000.000 0.000 -0.945
71 213.00 1200.01 167 502 0.306 10000.000 0.000 -0.945
72 216.00 1200.01 155 558 0.306 10000.000 0.000 -0.945
73 219.00 1200.01 161 564 0.306 10000.000 0.000 -0.945
74 222.00 1200.01 149 546 0.306 10000.000 0.000 -0.945
75 225.00 1200.01 158 577 0.306 10000.000 0.000 -0.945
76 228.00 1200.01 159 601 0.306 10000.000 0.000 -0.945
77 231.00 1200.01 165 568 0.306 10000.000 0.000 -0.945
78 234.00 1200.01 185 610 0.306 10000.000 0.000 -0.945
79 237.00 1200.01 170 564 0.306 10000.000 0.000 -0.945
80 240.00 1200.01 161 585 0.306 10000.000 0.000 -0.945
81 243.00 1200.01 180 555 0.306 10000.000 0.000 -0.945
82 246.00 1200.01 172 582 0.306 10000.000 0.000 -0.945
83 249.00 1200.01 194 522 0.306 10000.000 0.000 -0.945
84 252.00 1200.01 202 538 0.306 10000.000 0.000 -0.945
85 255.00 1200.01 214 531 0.306 10000.000 0.000 -0.945
86 258.00 1200.01 202 566 0.306 10000.000 0.000 -0.945
87 261.00 1200.01 186 494 0.306 10000.000 0.000 -0.945
88 264.00 1200.01 179 550 0.306 10000.000 0.000 -0.945
89 267.00 1200.01 167 500 0.306 10000.000 0.000 -0.945
90 270.00 1200.01 181 470 0.306 10000.000 0.000 -0.945
91 273.00 1200.01 205 467 0.306 10000.000 0.000 -0.945
92 276.00 1200.01 196 450 0.306 10000.000 0.000 -0.945
93 279.00 1200.01 172 500 0.306 10000.000 0.000 -0.945
94 282.00 1200.01 184 518 0.306 10000.000 0.000 -0.945
95 285.00 1200.01 205 446 0.306 10000.000 0.000 -0.945
96 288.00 1200.01 175 471 0.306 10000.000 0.000 -0.945
97 291.00 1200.01 202 551 0.306 10000.000 0.000 -0.945
98 294.00 1200.01 189 549 0.306 10000.000 0.000 -0.945
99 297.00 1200.01 179 498 0.306 10000.000 0.000 -0.945
100 300.00 1200.01 191 526 0.306 10000.000 0.000 -0.945
101 303.00 1200.01 199 552 0.306 10000.000 0.000 -0.945
102 306.00 1200.01 200 537 0.306 10000.000 0.000 -0.945
103 309.00 1200.01 197 562 0.306 10000.000 0.000 -0.945
104 312.00 1200.01 218 576 0.306 10000.000 0.000 -0.945
105 315.00 1200.01 159 541 0.306 10000.000 0.000 -0.945
106 318.00 1200.01 169 552 0.306 10000.000 0.000 -0.945
107 321.00 1200.01 169 551 0.306 10000.000 0.000 -0.945
108 324.00 1200.01 195 522 0.306 10000.000 0.000 -0.945
109 327.00 1200.01 150 614 0.306 10000.000 0.000 -0.945
110 330.00 1200.01 161 566 0.306 10000.000 0.000 -0.945
111 333.00 1200.01 182 599 0.306 10000.000 0.000 -0.945
112 336.00 1200.01 175 591 0.306 10000.000 0.000 -0.945
113 339.00 1200.01 167 560 0.306 10000.000 0.000 -0.945
114 342.00 1200.01 156 567 0.306 10000.000 0.000 -0.945
115 345.00 1200.01 162 590 0.306 10000.000 0.000 -0.945
116 348.00 1200.01 166 558 0.306 10000.000 0.000 -0.945
117 351.00 1200.01 121 500 0.306 10000.000 0.000 -0.945
118 354.00 1200.01 140 537 0.306 10000.000 0.000 -0.945
119 357.00 1200.01 145 516 0.306 10000.000 0.000 -0.945
120 360.00 1200.01 150 521 0.306 10000.000 0.000 -0.945
121 363.00 1200.01 164 474 0.306 10000.000 0.000 -0.945
122 366.00 1200.01 192 530 0.306 10000.000 0.000 -0.945
123 369.00 1200.01 165 549 0.306 10000.000 0.000 -0.945
124 372.00 1200.01 159 537 0.306 10000.000 0.000 -0.945
125 375.00 1200.01 182 450 0.306 10000.000 0.000 -0.945
126 378.00 1200.01 167 505 0.306 10000.000 0.000 -0.945
127 381.00 1200.01 181 504 0.306 10000.000 0.000 -0.945
128 384.00 1200.01 206 447 0.306 10000.000 0.000 -0.945
129 387.00 1200.01 178 507 0.306 10000.000 0.000 -0.945
130 390.00 1200.01 207 471 0.306 10000.000 0.000 -0.945
131 393.00 1200.01 201 572 0.306 10000.000 0.000 -0.945
132 396.00 1200.01 214 515 0.306 10000.000 0.000 -0.945
133 399.00 1200.01 198 491 0.306 10000.000 0.000 -0.945
134 402.00 1200.01 211 536 0.306 10000.000 0.000 -0.945
135 405.00 1200.01 195 495 0.306 10000.000 0.000 -0.945
136 408.00 1200.01 193 532 0.306 10000.000 0.000 -0.945
137 411.00 1200.01 178 551 0.306 10000.000 0.000 -0.945
138 414.00 1200.01 198 584 0.306 10000.000 0.000 -0.945
139 417.00 1200.01 178 545 0.306 10000.000 0.000 -0.945
140 420.00 1200.01 186 561 0.306 10000.000 0.000 -0.945
141 423.00 1200.01 152 596 0.306 10000.000 0.000 -0.945
