# BinNR microsec tot-time (s)  O-Beam AUX Ampl(V) f(Hz) phase(deg) chi(pos)
0 0.00 1500.02 86 177 1.520 10000.000 0.000 1.000
1 3.00 1500.02 201 290 1.520 10000.000 0.000 1.000
2 6.00 1500.02 177 329 1.520 10000.000 0.000 1.000
3 9.00 1500.02 186 342 1.520 10000.000 0.000 1.000
4 12.00 1500.02 197 358 1.520 10000.000 0.000 1.000
5 15.00 1500.02 188 301 1.520 10000.000 0.000 1.000
6 18.00 1500.02 199 330 1.520 10000.000 0.000 1.000
7 21.00 1500.02 186 333 1.520 10000.000 0.000 1.000
8 24.00 1500.02 181 355 1.520 10000.000 0.000 1.000
9 27.00 1500.02 217 340 1.520 10000.000 0.000 1.000
10 30.00 1500.02 186 311 1.520 10000.000 0.000 1.000
11 33.00 1500.02 172 314 1.520 10000.000 0.000 1.000
12 36.00 1500.02 195 344 1.520 10000.000 0.000 1.000
13 39.00 1500.02 183 308 1.520 10000.000 0.000 1.000
14 42.00 1500.02 179 318 1.520 10000.000 0.000 1.000
15 45.00 1500.02 209 317 1.520 10000.000 0.000 1.000
16 48.00 1500.02 191 326 1.520 10000.000 0.000 1.000
17 51.00 1500.02 209 304 1.520 10000.000 0.000 1.000
18 54.00 1500.02 186 322 1.520 10000.000 0.000 1.000
19 57.00 1500.02 214 343 1.520 10000.000 0.000 1.000
20 60.00 1500.02 171 356 1.520 10000.000 0.000 1.000
21 63.00 1500.02 207 309 1.520 10000.000 0.000 1.000
22 66.00 1500.02 181 322 1.520 10000.000 0.000 1.000
23 69.00 1500.02 193 285 1.520 10000.000 0.000 1.000
24 72.00 1500.02 177 314 1.520 10000.000 0.000 1.000
25 75.00 1500.02 181 324 1.520 10000.000 0.000 1.000
26 78.00 1500.02 186 278 1.520 10000.000 0.000 1.000
27 81.00 1500.02 187 336 1.520 10000.000 0.000 1.000
28 84.00 1500.02 203 328 1.520 10000.000 0.000 1.000
29 87.00 1500.02 214 337 1.520 10000.000 0.000 1.000
30 90.00 1500.02 166 317 1.520 10000.000 0.000 1.000
31 93.00 1500.02 209 328 1.520 10000.000 0.000 1.000
32 96.00 1500.02 191 332 1.520 10000.000 0.000 1.000
33 99.00 1500.02 199 322 1.520 10000.000 0.000 1.000
34 102.00 1500.02 190 351 1.520 10000.000 0.000 1.000
35 105.00 1500.02 171 338 1.520 10000.000 0.000 1.000
36 108.00 1500.02 184 328 1.520 10000.000 0.000 1.000
37 111.00 1500.02 188 369 1.520 10000.000 0.000 1.000
38 114.00 1500.02 192 305 1.520 10000.000 0.000 1.000
39 117.00 1500.02 183 333 1.520 10000.000 0.000 1.000
40 120.00 1500.02 214 369 1.520 10000.000 0.000 1.000
41 123.00 1500.02 197 305 1.520 10000.000 0.000 1.000
42 126.00 1500.02 204 342 1.520 10000.000 0.000 1.000
43 129.00 1500.02 182 323 1.520 10000.000 0.000 1.000
44 132.00 1500.02 191 355 1.520 10000.000 0.000 1.000
45 135.00 1500.02 191 311 1.520 10000.000 0.000 1.000
46 138.00 1500.02 209 351 1.520 10000.000 0.000 1.000
47 141.00 1500.02 188 324 1.520 10000.000 0.000 1.000
48 144.00 1500.02 175 337 1.520 10000.000 0.000 1.000
49 147.00 1500.02 189 315 1.520 10000.000 0.000 1.000
50 150.00 1500.02 193 318 1.520 10000.000 0.000 1.000
51 153.00 1500.02 182 341 1.520 10000.000 0.000 1.000
52 156.00 1500.02 174 315 1.520 10000.000 0.000 1.000
53 159.00 1500.02 196 344 1.520 10000.000 0.000 1.000
54 162.00 1500.02 196 341 1.520 10000.000 0.000 1.000
55 165.00 1500.02 191 322 1.520 10000.000 0.000 1.000
56 168.00 1500.02 194 314 1.520 10000.000 0.000 1.000
57 171.00 1500.02 177 331 1.520 10000.000 0.000 1.000
58 174.00 1500.02 202 312 1.520 10000.000 0.000 1.000
59 177.00 1500.02 186 327 1.520 10000.000 0.000 1.000
60 180.00 1500.02 203 356 1.520 10000.000 0.000 1.000
61 183.00 1500.02 204 305 1.520 10000.000 0.000 1.000
62 186.00 1500.02 209 312 1.520 10000.000 0.000 1.000
63 189.00 1500.02 175 330 1.520 10000.000 0.000 1.000
64 192.00 1500.02 188 350 1.520 10000.000 0.000 1.000
65 195.00 1500.02 192 311 1.520 10000.000 0.000 1.000
66 198.00 1500.02 194 291 1.520 10000.000 0.000 1.000
67 201.00 1500.02 185 323 1.520 10000.000 0.000 1.000
68 204.00 1500.02 191 326 1.520 10000.000 0.000 1.000
69 207.00 1500.02 193 355 1.520 10000.000 0.000 1.000
70 210.00 1500.02 189 348 1.520 10000.000 0.000 1.000
71 213.00 1500.02 201 358 1.520 10000.000 0.000 1.000
72 216.00 1500.02 186 306 1.520 10000.000 0.000 1.000
73 219.00 1500.02 205 309 1.520 10000.000 0.000 1.000
74 222.00 1500.02 188 312 1.520 10000.000 0.000 1.000
75 225.00 1500.02 211 324 1.520 10000.000 0.000 1.000
76 228.00 1500.02 192 369 1.520 10000.000 0.000 1.000
77 231.00 1500.02 207 340 1.520 10000.000 0.000 1.000
78 234.00 1500.02 171 339 1.520 10000.000 0.000 1.000
79 237.00 1500.02 205 320 1.520 10000.000 0.000 1.000
80 240.00 1500.02 175 308 1.520 10000.000 0.000 1.000
81 243.00 1500.02 200 361 1.520 10000.000 0.000 1.000
82 246.00 1500.02 181 305 1.520 10000.000 0.000 1.000
83 249.00 1500.02 185 318 1.520 10000.000 0.000 1.000
84 252.00 1500.02 168 322 1.520 10000.000 0.000 1.000
85 255.00 1500.02 190 306 1.520 10000.000 0.000 1.000
86 258.00 1500.02 222 322 1.520 10000.000 0.000 1.000
87 261.00 1500.02 172 334 1.520 10000.000 0.000 1.000
88 264.00 1500.02 213 322 1.520 10000.000 0.000 1.000
89 267.00 1500.02 195 331 1.520 10000.000 0.000 1.000
90 270.00 1500.02 201 352 1.520 10000.000 0.000 1.000
91 273.00 1500.02 195 329 1.520 10000.000 0.000 1.000
92 276.00 1500.02 184 348 1.520 10000.000 0.000 1.000
93 279.00 1500.02 187 282 1.520 10000.000 0.000 1.000
94 282.00 1500.02 213 324 1.520 10000.000 0.000 1.000
95 285.00 1500.02 199 333 1.520 10000.000 0.000 1.000
96 288.00 1500.02 191 309 1.520 10000.000 0.000 1.000
97 291.00 1500.02 198 347 1.520 10000.000 0.000 1.000
98 294.00 1500.02 186 305 1.520 10000.000 0.000 1.000
99 297.00 1500.02 155 320 1.520 10000.000 0.000 1.000
100 300.00 1500.02 178 333 1.520 10000.000 0.000 1.000
101 303.00 1500.02 203 322 1.520 10000.000 0.000 1.000
102 306.00 1500.02 187 344 1.520 10000.000 0.000 1.000
103 309.00 1500.02 201 315 1.520 10000.000 0.000 1.000
104 312.00 1500.02 211 342 1.520 10000.000 0.000 1.000
105 315.00 1500.02 179 323 1.520 10000.000 0.000 1.000
106 318.00 1500.02 187 314 1.520 10000.000 0.000 1.000
107 321.00 1500.02 192 332 1.520 10000.000 0.000 1.000
108 324.00 1500.02 193 356 1.520 10000.000 0.000 1.000
109 327.00 1500.02 206 292 1.520 10000.000 0.000 1.000
110 330.00 1500.02 181 334 1.520 10000.000 0.000 1.000
111 333.00 1500.02 183 337 1.520 10000.000 0.000 1.000
112 336.00 1500.02 190 327 1.520 10000.000 0.000 1.000
113 339.00 1500.02 183 296 1.520 10000.000 0.000 1.000
114 342.00 1500.02 186 366 1.520 10000.000 0.000 1.000
115 345.00 1500.02 206 300 1.520 10000.000 0.000 1.000
116 348.00 1500.02 192 323 1.520 10000.000 0.000 1.000
117 351.00 1500.02 172 329 1.520 10000.000 0.000 1.000
118 354.00 1500.02 206 320 1.520 10000.000 0.000 1.000
119 357.00 1500.02 189 342 1.520 10000.000 0.000 1.000
120 360.00 1500.02 182 347 1.520 10000.000 0.000 1.000
121 363.00 1500.02 206 349 1.520 10000.000 0.000 1.000
122 366.00 1500.02 191 348 1.520 10000.000 0.000 1.000
123 369.00 1500.02 187 318 1.520 10000.000 0.000 1.000
124 372.00 1500.02 186 329 1.520 10000.000 0.000 1.000
125 375.00 1500.02 193 318 1.520 10000.000 0.000 1.000
126 378.00 1500.02 205 327 1.520 10000.000 0.000 1.000
127 381.00 1500.02 182 307 1.520 10000.000 0.000 1.000
128 384.00 1500.02 184 336 1.520 10000.000 0.000 1.000
129 387.00 1500.02 222 340 1.520 10000.000 0.000 1.000
130 390.00 1500.02 190 300 1.520 10000.000 0.000 1.000
131 393.00 1500.02 193 320 1.520 10000.000 0.000 1.000
132 396.00 1500.02 172 343 1.520 10000.000 0.000 1.000
133 399.00 1500.02 188 314 1.520 10000.000 0.000 1.000
134 402.00 1500.02 193 317 1.520 10000.000 0.000 1.000
135 405.00 1500.02 190 327 1.520 10000.000 0.000 1.000
136 408.00 1500.02 194 337 1.520 10000.000 0.000 1.000
137 411.00 1500.02 183 336 1.520 10000.000 0.000 1.000
138 414.00 1500.02 191 295 1.520 10000.000 0.000 1.000
139 417.00 1500.02 223 324 1.520 10000.000 0.000 1.000
140 420.00 1500.02 172 343 1.520 10000.000 0.000 1.000
141 423.00 1500.02 211 310 1.520 10000.000 0.000 1.000
142 426.00 1500.02 202 336 1.520 10000.000 0.000 1.000
143 429.00 1500.02 192 345 1.520 10000.000 0.000 1.000
144 432.00 1500.02 187 333 1.520 10000.000 0.000 1.000
