# BinNR microsec tot-time (s)  O-Beam AUX Ampl(V) f(Hz) phase(deg) chi(pos)
0 0.00 1500.01 82 130 1.520 10000.000 0.000 -0.670
1 3.00 1500.01 129 230 1.520 10000.000 0.000 -0.670
2 6.00 1500.01 162 244 1.520 10000.000 0.000 -0.670
3 9.00 1500.01 140 238 1.520 10000.000 0.000 -0.670
4 12.00 1500.01 141 265 1.520 10000.000 0.000 -0.670
5 15.00 1500.01 152 230 1.520 10000.000 0.000 -0.670
6 18.00 1500.01 177 256 1.520 10000.000 0.000 -0.670
7 21.00 1500.01 152 265 1.520 10000.000 0.000 -0.670
8 24.00 1500.01 176 224 1.520 10000.000 0.000 -0.670
9 27.00 1500.01 142 265 1.520 10000.000 0.000 -0.670
10 30.00 1500.01 135 254 1.520 10000.000 0.000 -0.670
11 33.00 1500.01 137 253 1.520 10000.000 0.000 -0.670
12 36.00 1500.01 169 228 1.520 10000.000 0.000 -0.670
13 39.00 1500.01 143 245 1.520 10000.000 0.000 -0.670
14 42.00 1500.01 160 238 1.520 10000.000 0.000 -0.670
15 45.00 1500.01 170 226 1.520 10000.000 0.000 -0.670
16 48.00 1500.01 165 252 1.520 10000.000 0.000 -0.670
17 51.00 1500.01 159 241 1.520 10000.000 0.000 -0.670
18 54.00 1500.01 157 241 1.520 10000.000 0.000 -0.670
19 57.00 1500.01 160 240 1.520 10000.000 0.000 -0.670
20 60.00 1500.01 137 256 1.520 10000.000 0.000 -0.670
21 63.00 1500.01 150 251 1.520 10000.000 0.000 -0.670
22 66.00 1500.01 154 217 1.520 10000.000 0.000 -0.670
23 69.00 1500.01 161 235 1.520 10000.000 0.000 -0.670
24 72.00 1500.01 141 241 1.520 10000.000 0.000 -0.670
25 75.00 1500.01 161 270 1.520 10000.000 0.000 -0.670
26 78.00 1500.01 155 230 1.520 10000.000 0.000 -0.670
27 81.00 1500.01 162 271 1.520 10000.000 0.000 -0.670
28 84.00 1500.01 128 219 1.520 10000.000 0.000 -0.670
29 87.00 1500.01 155 241 1.520 10000.000 0.000 -0.670
30 90.00 1500.01 158 230 1.520 10000.000 0.000 -0.670
31 93.00 1500.01 143 229 1.520 10000.000 0.000 -0.670
32 96.00 1500.01 160 252 1.520 10000.000 0.000 -0.670
33 99.00 1500.01 135 231 1.520 10000.000 0.000 -0.670
34 102.00 1500.01 172 228 1.520 10000.000 0.000 -0.670
35 105.00 1500.01 153 246 1.520 10000.000 0.000 -0.670
36 108.00 1500.01 167 227 1.520 10000.000 0.000 -0.670
37 111.00 1500.01 145 235 1.520 10000.000 0.000 -0.670
38 114.00 1500.01 151 244 1.520 10000.000 0.000 -0.670
39 117.00 1500.01 160 273 1.520 10000.000 0.000 -0.670
40 120.00 1500.01 165 244 1.520 10000.000 0.000 -0.670
41 123.00 1500.01 164 222 1.520 10000.000 0.000 -0.670
42 126.00 1500.01 160 253 1.520 10000.000 0.000 -0.670
43 129.00 1500.01 159 235 1.520 10000.000 0.000 -0.670
44 132.00 1500.01 134 226 1.520 10000.000 0.000 -0.670
45 135.00 1500.01 161 278 1.520 10000.000 0.000 -0.670
46 138.00 1500.01 159 270 1.520 10000.000 0.000 -0.670
47 141.00 1500.01 151 243 1.520 10000.000 0.000 -0.670
48 144.00 1500.01 165 223 1.520 10000.000 0.000 -0.670
49 147.00 1500.01 172 241 1.520 10000.000 0.000 -0.670
50 150.00 1500.01 165 220 1.520 10000.000 0.000 -0.670
51 153.00 1500.01 146 230 1.520 10000.000 0.000 -0.670
52 156.00 1500.01 153 243 1.520 10000.000 0.000 -0.670
53 159.00 1500.01 172 244 1.520 10000.000 0.000 -0.670
54 162.00 1500.01 173 253 1.520 10000.000 0.000 -0.670
55 165.00 1500.01 147 219 1.520 10000.000 0.000 -0.670
56 168.00 1500.01 153 240 1.520 10000.000 0.000 -0.670
57 171.00 1500.01 158 221 1.520 10000.000 0.000 -0.670
58 174.00 1500.01 160 256 1.520 10000.000 0.000 -0.670
59 177.00 1500.01 162 258 1.520 10000.000 0.000 -0.670
60 180.00 1500.01 152 281 1.520 10000.000 0.000 -0.670
61 183.00 1500.01 161 241 1.520 10000.000 0.000 -0.670
62 186.00 1500.01 162 260 1.520 10000.000 0.000 -0.670
63 189.00 1500.01 158 242 1.520 10000.000 0.000 -0.670
64 192.00 1500.01 174 236 1.520 10000.000 0.000 -0.670
65 195.00 1500.01 157 235 1.520 10000.000 0.000 -0.670
66 198.00 1500.01 160 234 1.520 10000.000 0.000 -0.670
67 201.00 1500.01 162 243 1.520 10000.000 0.000 -0.670
68 204.00 1500.01 160 219 1.520 10000.000 0.000 -0.670
69 207.00 1500.01 158 242 1.520 10000.000 0.000 -0.670
70 210.00 1500.01 157 255 1.520 10000.000 0.000 -0.670
71 213.00 1500.01 139 244 1.520 10000.000 0.000 -0.670
72 216.00 1500.01 150 246 1.520 10000.000 0.000 -0.670
73 219.00 1500.01 149 251 1.520 10000.000 0.000 -0.670
74 222.00 1500.01 140 255 1.520 10000.000 0.000 -0.670
75 225.00 1500.01 163 275 1.520 10000.000 0.000 -0.670
76 228.00 1500.01 153 252 1.520 10000.000 0.000 -0.670
77 231.00 1500.01 149 205 1.520 10000.000 0.000 -0.670
78 234.00 1500.01 156 262 1.520 10000.000 0.000 -0.670
79 237.00 1500.01 156 218 1.520 10000.000 0.000 -0.670
80 240.00 1500.01 155 242 1.520 10000.000 0.000 -0.670
81 243.00 1500.01 154 243 1.520 10000.000 0.000 -0.670
82 246.00 1500.01 184 281 1.520 10000.000 0.000 -0.670
83 249.00 1500.01 171 259 1.520 10000.000 0.000 -0.670
84 252.00 1500.01 155 232 1.520 10000.000 0.000 -0.670
85 255.00 1500.01 159 223 1.520 10000.000 0.000 -0.670
86 258.00 1500.01 146 256 1.520 10000.000 0.000 -0.670
87 261.00 1500.01 145 223 1.520 10000.000 0.000 -0.670
88 264.00 1500.01 168 264 1.520 10000.000 0.000 -0.670
89 267.00 1500.01 167 231 1.520 10000.000 0.000 -0.670
90 270.00 1500.01 130 260 1.520 10000.000 0.000 -0.670
91 273.00 1500.01 181 222 1.520 10000.000 0.000 -0.670
92 276.00 1500.01 163 255 1.520 10000.000 0.000 -0.670
93 279.00 1500.01 145 241 1.520 10000.000 0.000 -0.670
94 282.00 1500.01 152 278 1.520 10000.000 0.000 -0.670
95 285.00 1500.01 151 240 1.520 10000.000 0.000 -0.670
96 288.00 1500.01 150 242 1.520 10000.000 0.000 -0.670
97 291.00 1500.01 153 269 1.520 10000.000 0.000 -0.670
98 294.00 1500.01 159 241 1.520 10000.000 0.000 -0.670
99 297.00 1500.01 135 241 1.520 10000.000 0.000 -0.670
100 300.00 1500.01 164 220 1.520 10000.000 0.000 -0.670
101 303.00 1500.01 157 242 1.520 10000.000 0.000 -0.670
102 306.00 1500.01 155 243 1.520 10000.000 0.000 -0.670
103 309.00 1500.01 169 254 1.520 10000.000 0.000 -0.670
104 312.00 1500.01 142 266 1.520 10000.000 0.000 -0.670
105 315.00 1500.01 136 236 1.520 10000.000 0.000 -0.670
106 318.00 1500.01 162 249 1.520 10000.000 0.000 -0.670
107 321.00 1500.01 159 247 1.520 10000.000 0.000 -0.670
108 324.00 1500.01 162 290 1.520 10000.000 0.000 -0.670
109 327.00 1500.01 173 240 1.520 10000.000 0.000 -0.670
110 330.00 1500.01 171 242 1.520 10000.000 0.000 -0.670
111 333.00 1500.01 149 246 1.520 10000.000 0.000 -0.670
112 336.00 1500.01 130 246 1.520 10000.000 0.000 -0.670
113 339.00 1500.01 159 242 1.520 10000.000 0.000 -0.670
114 342.00 1500.01 178 221 1.520 10000.000 0.000 -0.670
115 345.00 1500.01 149 235 1.520 10000.000 0.000 -0.670
116 348.00 1500.01 141 238 1.520 10000.000 0.000 -0.670
117 351.00 1500.01 160 258 1.520 10000.000 0.000 -0.670
118 354.00 1500.01 170 248 1.520 10000.000 0.000 -0.670
119 357.00 1500.01 165 256 1.520 10000.000 0.000 -0.670
120 360.00 1500.01 157 244 1.520 10000.000 0.000 -0.670
121 363.00 1500.01 139 263 1.520 10000.000 0.000 -0.670
122 366.00 1500.01 155 245 1.520 10000.000 0.000 -0.670
123 369.00 1500.01 144 242 1.520 10000.000 0.000 -0.670
124 372.00 1500.01 174 253 1.520 10000.000 0.000 -0.670
125 375.00 1500.01 163 248 1.520 10000.000 0.000 -0.670
126 378.00 1500.01 140 252 1.520 10000.000 0.000 -0.670
127 381.00 1500.01 164 252 1.520 10000.000 0.000 -0.670
128 384.00 1500.01 153 286 1.520 10000.000 0.000 -0.670
129 387.00 1500.01 162 241 1.520 10000.000 0.000 -0.670
130 390.00 1500.01 155 231 1.520 10000.000 0.000 -0.670
131 393.00 1500.01 171 221 1.520 10000.000 0.000 -0.670
132 396.00 1500.01 141 237 1.520 10000.000 0.000 -0.670
133 399.00 1500.01 175 214 1.520 10000.000 0.000 -0.670
134 402.00 1500.01 169 279 1.520 10000.000 0.000 -0.670
135 405.00 1500.01 148 241 1.520 10000.000 0.000 -0.670
136 408.00 1500.01 189 239 1.520 10000.000 0.000 -0.670
137 411.00 1500.01 131 257 1.520 10000.000 0.000 -0.670
138 414.00 1500.01 185 254 1.520 10000.000 0.000 -0.670
139 417.00 1500.01 136 254 1.520 10000.000 0.000 -0.670
140 420.00 1500.01 165 265 1.520 10000.000 0.000 -0.670
141 423.00 1500.01 150 259 1.520 10000.000 0.000 -0.670
142 426.00 1500.01 139 241 1.520 10000.000 0.000 -0.670
143 429.00 1500.01 151 248 1.520 10000.000 0.000 -0.670
144 432.00 1500.01 154 242 1.520 10000.000 0.000 -0.670
