# BinNR microsec tot-time (s)  O-Beam AUX Ampl(V) f(Hz) phase(deg) chi(pos)
0 0.00 1500.00 146 456 1.520 10000.000 0.000 -0.165
1 3.00 1500.00 286 854 1.520 10000.000 0.000 -0.165
2 6.00 1500.00 287 873 1.520 10000.000 0.000 -0.165
3 9.00 1500.00 277 770 1.520 10000.000 0.000 -0.165
4 12.00 1500.00 300 818 1.520 10000.000 0.000 -0.165
5 15.00 1500.00 287 832 1.520 10000.000 0.000 -0.165
6 18.00 1500.00 288 883 1.520 10000.000 0.000 -0.165
7 21.00 1500.00 279 823 1.520 10000.000 0.000 -0.165
8 24.00 1500.00 256 813 1.520 10000.000 0.000 -0.165
9 27.00 1500.00 261 901 1.520 10000.000 0.000 -0.165
10 30.00 1500.00 270 907 1.520 10000.000 0.000 -0.165
11 33.00 1500.00 262 817 1.520 10000.000 0.000 -0.165
12 36.00 1500.00 314 834 1.520 10000.000 0.000 -0.165
13 39.00 1500.00 264 835 1.520 10000.000 0.000 -0.165
14 42.00 1500.00 274 916 1.520 10000.000 0.000 -0.165
15 45.00 1500.00 304 819 1.520 10000.000 0.000 -0.165
16 48.00 1500.00 304 860 1.520 10000.000 0.000 -0.165
17 51.00 1500.00 283 866 1.520 10000.000 0.000 -0.165
18 54.00 1500.00 288 857 1.520 10000.000 0.000 -0.165
19 57.00 1500.00 285 851 1.520 10000.000 0.000 -0.165
20 60.00 1500.00 255 867 1.520 10000.000 0.000 -0.165
21 63.00 1500.00 293 828 1.520 10000.000 0.000 -0.165
22 66.00 1500.00 302 853 1.520 10000.000 0.000 -0.165
23 69.00 1500.00 300 844 1.520 10000.000 0.000 -0.165
24 72.00 1500.00 302 852 1.520 10000.000 0.000 -0.165
25 75.00 1500.00 282 815 1.520 10000.000 0.000 -0.165
26 78.00 1500.00 249 860 1.520 10000.000 0.000 -0.165
27 81.00 1500.00 277 837 1.520 10000.000 0.000 -0.165
28 84.00 1500.00 265 851 1.520 10000.000 0.000 -0.165
29 87.00 1500.00 302 824 1.520 10000.000 0.000 -0.165
30 90.00 1500.00 262 902 1.520 10000.000 0.000 -0.165
31 93.00 1500.00 279 814 1.520 10000.000 0.000 -0.165
32 96.00 1500.00 315 862 1.520 10000.000 0.000 -0.165
33 99.00 1500.00 315 845 1.520 10000.000 0.000 -0.165
34 102.00 1500.00 302 883 1.520 10000.000 0.000 -0.165
35 105.00 1500.00 305 869 1.520 10000.000 0.000 -0.165
36 108.00 1500.00 285 869 1.520 10000.000 0.000 -0.165
37 111.00 1500.00 264 865 1.520 10000.000 0.000 -0.165
38 114.00 1500.00 274 914 1.520 10000.000 0.000 -0.165
39 117.00 1500.00 312 840 1.520 10000.000 0.000 -0.165
40 120.00 1500.00 285 826 1.520 10000.000 0.000 -0.165
41 123.00 1500.00 264 843 1.520 10000.000 0.000 -0.165
42 126.00 1500.00 316 881 1.520 10000.000 0.000 -0.165
43 129.00 1500.00 287 846 1.520 10000.000 0.000 -0.165
44 132.00 1500.00 273 867 1.520 10000.000 0.000 -0.165
45 135.00 1500.00 273 806 1.520 10000.000 0.000 -0.165
46 138.00 1500.00 281 839 1.520 10000.000 0.000 -0.165
47 141.00 1500.00 273 832 1.520 10000.000 0.000 -0.165
48 144.00 1500.00 269 873 1.520 10000.000 0.000 -0.165
49 147.00 1500.00 297 839 1.520 10000.000 0.000 -0.165
50 150.00 1500.00 287 849 1.520 10000.000 0.000 -0.165
51 153.00 1500.00 277 835 1.520 10000.000 0.000 -0.165
52 156.00 1500.00 291 876 1.520 10000.000 0.000 -0.165
53 159.00 1500.00 324 843 1.520 10000.000 0.000 -0.165
54 162.00 1500.00 275 877 1.520 10000.000 0.000 -0.165
55 165.00 1500.00 307 839 1.520 10000.000 0.000 -0.165
56 168.00 1500.00 281 863 1.520 10000.000 0.000 -0.165
57 171.00 1500.00 278 845 1.520 10000.000 0.000 -0.165
58 174.00 1500.00 270 881 1.520 10000.000 0.000 -0.165
59 177.00 1500.00 293 806 1.520 10000.000 0.000 -0.165
60 180.00 1500.00 292 807 1.520 10000.000 0.000 -0.165
61 183.00 1500.00 257 821 1.520 10000.000 0.000 -0.165
62 186.00 1500.00 258 870 1.520 10000.000 0.000 -0.165
63 189.00 1500.00 251 854 1.520 10000.000 0.000 -0.165
64 192.00 1500.00 292 862 1.520 10000.000 0.000 -0.165
65 195.00 1500.00 266 880 1.520 10000.000 0.000 -0.165
66 198.00 1500.00 299 864 1.520 10000.000 0.000 -0.165
67 201.00 1500.00 264 877 1.520 10000.000 0.000 -0.165
68 204.00 1500.00 264 840 1.520 10000.000 0.000 -0.165
69 207.00 1500.00 276 840 1.520 10000.000 0.000 -0.165
70 210.00 1500.00 290 833 1.520 10000.000 0.000 -0.165
71 213.00 1500.00 277 889 1.520 10000.000 0.000 -0.165
72 216.00 1500.00 284 853 1.520 10000.000 0.000 -0.165
73 219.00 1500.00 252 822 1.520 10000.000 0.000 -0.165
74 222.00 1500.00 299 847 1.520 10000.000 0.000 -0.165
75 225.00 1500.00 252 827 1.520 10000.000 0.000 -0.165
76 228.00 1500.00 247 799 1.520 10000.000 0.000 -0.165
77 231.00 1500.00 274 811 1.520 10000.000 0.000 -0.165
78 234.00 1500.00 281 931 1.520 10000.000 0.000 -0.165
79 237.00 1500.00 269 861 1.520 10000.000 0.000 -0.165
80 240.00 1500.00 272 851 1.520 10000.000 0.000 -0.165
81 243.00 1500.00 267 839 1.520 10000.000 0.000 -0.165
82 246.00 1500.00 278 807 1.520 10000.000 0.000 -0.165
83 249.00 1500.00 305 838 1.520 10000.000 0.000 -0.165
84 252.00 1500.00 265 888 1.520 10000.000 0.000 -0.165
85 255.00 1500.00 289 837 1.520 10000.000 0.000 -0.165
86 258.00 1500.00 284 913 1.520 10000.000 0.000 -0.165
87 261.00 1500.00 299 875 1.520 10000.000 0.000 -0.165
88 264.00 1500.00 301 846 1.520 10000.000 0.000 -0.165
89 267.00 1500.00 276 801 1.520 10000.000 0.000 -0.165
90 270.00 1500.00 280 811 1.520 10000.000 0.000 -0.165
91 273.00 1500.00 286 898 1.520 10000.000 0.000 -0.165
92 276.00 1500.00 289 859 1.520 10000.000 0.000 -0.165
93 279.00 1500.00 281 833 1.520 10000.000 0.000 -0.165
94 282.00 1500.00 268 905 1.520 10000.000 0.000 -0.165
95 285.00 1500.00 284 894 1.520 10000.000 0.000 -0.165
96 288.00 1500.00 287 877 1.520 10000.000 0.000 -0.165
97 291.00 1500.00 266 877 1.520 10000.000 0.000 -0.165
98 294.00 1500.00 294 913 1.520 10000.000 0.000 -0.165
99 297.00 1500.00 288 796 1.520 10000.000 0.000 -0.165
100 300.00 1500.00 269 845 1.520 10000.000 0.000 -0.165
101 303.00 1500.00 278 812 1.520 10000.000 0.000 -0.165
102 306.00 1500.00 255 889 1.520 10000.000 0.000 -0.165
103 309.00 1500.00 273 809 1.520 10000.000 0.000 -0.165
104 312.00 1500.00 255 833 1.520 10000.000 0.000 -0.165
105 315.00 1500.00 306 843 1.520 10000.000 0.000 -0.165
106 318.00 1500.00 296 861 1.520 10000.000 0.000 -0.165
107 321.00 1500.00 310 915 1.520 10000.000 0.000 -0.165
108 324.00 1500.00 267 892 1.520 10000.000 0.000 -0.165
109 327.00 1500.00 278 848 1.520 10000.000 0.000 -0.165
110 330.00 1500.00 285 902 1.520 10000.000 0.000 -0.165
111 333.00 1500.00 290 864 1.520 10000.000 0.000 -0.165
112 336.00 1500.00 299 861 1.520 10000.000 0.000 -0.165
113 339.00 1500.00 281 843 1.520 10000.000 0.000 -0.165
114 342.00 1500.00 273 924 1.520 10000.000 0.000 -0.165
115 345.00 1500.00 296 820 1.520 10000.000 0.000 -0.165
116 348.00 1500.00 311 894 1.520 10000.000 0.000 -0.165
117 351.00 1500.00 296 840 1.520 10000.000 0.000 -0.165
118 354.00 1500.00 294 871 1.520 10000.000 0.000 -0.165
119 357.00 1500.00 290 805 1.520 10000.000 0.000 -0.165
120 360.00 1500.00 315 836 1.520 10000.000 0.000 -0.165
121 363.00 1500.00 277 886 1.520 10000.000 0.000 -0.165
122 366.00 1500.00 303 856 1.520 10000.000 0.000 -0.165
123 369.00 1500.00 274 874 1.520 10000.000 0.000 -0.165
124 372.00 1500.00 303 863 1.520 10000.000 0.000 -0.165
125 375.00 1500.00 306 861 1.520 10000.000 0.000 -0.165
126 378.00 1500.00 269 869 1.520 10000.000 0.000 -0.165
127 381.00 1500.00 271 806 1.520 10000.000 0.000 -0.165
128 384.00 1500.00 253 894 1.520 10000.000 0.000 -0.165
129 387.00 1500.00 285 826 1.520 10000.000 0.000 -0.165
130 390.00 1500.00 292 843 1.520 10000.000 0.000 -0.165
131 393.00 1500.00 290 824 1.520 10000.000 0.000 -0.165
132 396.00 1500.00 259 862 1.520 10000.000 0.000 -0.165
133 399.00 1500.00 280 827 1.520 10000.000 0.000 -0.165
134 402.00 1500.00 288 883 1.520 10000.000 0.000 -0.165
135 405.00 1500.00 277 812 1.520 10000.000 0.000 -0.165
136 408.00 1500.00 314 826 1.520 10000.000 0.000 -0.165
137 411.00 1500.00 306 812 1.520 10000.000 0.000 -0.165
138 414.00 1500.00 287 844 1.520 10000.000 0.000 -0.165
139 417.00 1500.00 259 847 1.520 10000.000 0.000 -0.165
140 420.00 1500.00 295 837 1.520 10000.000 0.000 -0.165
141 423.00 1500.00 270 809 1.520 10000.000 0.000 -0.165
142 426.00 1500.00 303 832 1.520 10000.000 0.000 -0.165
143 429.00 1500.00 284 916 1.520 10000.000 0.000 -0.165
144 432.00 1500.00 299 858 1.520 10000.000 0.000 -0.165
