# BinNR microsec tot-time (s)  O-Beam AUX Ampl(V) f(Hz) phase(deg) chi(pos)
0 0.00 1500.03 179 453 1.520 10000.000 0.000 0.494
1 3.00 1500.03 346 998 1.520 10000.000 0.000 0.494
2 6.00 1500.03 375 1003 1.520 10000.000 0.000 0.494
3 9.00 1500.03 367 968 1.520 10000.000 0.000 0.494
4 12.00 1500.03 352 989 1.520 10000.000 0.000 0.494
5 15.00 1500.03 374 1006 1.520 10000.000 0.000 0.494
6 18.00 1500.03 337 1043 1.520 10000.000 0.000 0.494
7 21.00 1500.03 326 1003 1.520 10000.000 0.000 0.494
8 24.00 1500.03 369 955 1.520 10000.000 0.000 0.494
9 27.00 1500.03 378 983 1.520 10000.000 0.000 0.494
10 30.00 1500.03 360 1049 1.520 10000.000 0.000 0.494
11 33.00 1500.03 346 1003 1.520 10000.000 0.000 0.494
12 36.00 1500.03 378 1044 1.520 10000.000 0.000 0.494
13 39.00 1500.03 361 971 1.520 10000.000 0.000 0.494
14 42.00 1500.03 340 1055 1.520 10000.000 0.000 0.494
15 45.00 1500.03 362 963 1.520 10000.000 0.000 0.494
16 48.00 1500.03 349 1002 1.520 10000.000 0.000 0.494
17 51.00 1500.03 347 1003 1.520 10000.000 0.000 0.494
18 54.00 1500.03 336 1000 1.520 10000.000 0.000 0.494
19 57.00 1500.03 325 970 1.520 10000.000 0.000 0.494
20 60.00 1500.03 375 990 1.520 10000.000 0.000 0.494
21 63.00 1500.03 343 1040 1.520 10000.000 0.000 0.494
22 66.00 1500.03 356 995 1.520 10000.000 0.000 0.494
23 69.00 1500.03 365 932 1.520 10000.000 0.000 0.494
24 72.00 1500.03 363 1005 1.520 10000.000 0.000 0.494
25 75.00 1500.03 354 984 1.520 10000.000 0.000 0.494
26 78.00 1500.03 342 1017 1.520 10000.000 0.000 0.494
27 81.00 1500.03 341 1026 1.520 10000.000 0.000 0.494
28 84.00 1500.03 359 1024 1.520 10000.000 0.000 0.494
29 87.00 1500.03 338 1011 1.520 10000.000 0.000 0.494
30 90.00 1500.03 347 1007 1.520 10000.000 0.000 0.494
31 93.00 1500.03 346 966 1.520 10000.000 0.000 0.494
32 96.00 1500.03 373 942 1.520 10000.000 0.000 0.494
33 99.00 1500.03 343 1032 1.520 10000.000 0.000 0.494
34 102.00 1500.03 330 1056 1.520 10000.000 0.000 0.494
35 105.00 1500.03 343 1010 1.520 10000.000 0.000 0.494
36 108.00 1500.03 336 974 1.520 10000.000 0.000 0.494
37 111.00 1500.03 313 1034 1.520 10000.000 0.000 0.494
38 114.00 1500.03 372 1056 1.520 10000.000 0.000 0.494
39 117.00 1500.03 354 952 1.520 10000.000 0.000 0.494
40 120.00 1500.03 323 1007 1.520 10000.000 0.000 0.494
41 123.00 1500.03 339 1045 1.520 10000.000 0.000 0.494
42 126.00 1500.03 352 1012 1.520 10000.000 0.000 0.494
43 129.00 1500.03 333 1040 1.520 10000.000 0.000 0.494
44 132.00 1500.03 362 970 1.520 10000.000 0.000 0.494
45 135.00 1500.03 360 1000 1.520 10000.000 0.000 0.494
46 138.00 1500.03 334 1097 1.520 10000.000 0.000 0.494
47 141.00 1500.03 377 960 1.520 10000.000 0.000 0.494
48 144.00 1500.03 363 1004 1.520 10000.000 0.000 0.494
49 147.00 1500.03 353 1056 1.520 10000.000 0.000 0.494
50 150.00 1500.03 363 1029 1.520 10000.000 0.000 0.494
51 153.00 1500.03 359 978 1.520 10000.000 0.000 0.494
52 156.00 1500.03 345 1058 1.520 10000.000 0.000 0.494
53 159.00 1500.03 362 1014 1.520 10000.000 0.000 0.494
54 162.00 1500.03 377 1010 1.520 10000.000 0.000 0.494
55 165.00 1500.03 341 985 1.520 10000.000 0.000 0.494
56 168.00 1500.03 365 965 1.520 10000.000 0.000 0.494
57 171.00 1500.03 341 963 1.520 10000.000 0.000 0.494
58 174.00 1500.03 352 1000 1.520 10000.000 0.000 0.494
59 177.00 1500.03 385 980 1.520 10000.000 0.000 0.494
60 180.00 1500.03 358 1038 1.520 10000.000 0.000 0.494
61 183.00 1500.03 334 984 1.520 10000.000 0.000 0.494
62 186.00 1500.03 369 1012 1.520 10000.000 0.000 0.494
63 189.00 1500.03 340 1003 1.520 10000.000 0.000 0.494
64 192.00 1500.03 352 957 1.520 10000.000 0.000 0.494
65 195.00 1500.03 350 940 1.520 10000.000 0.000 0.494
66 198.00 1500.03 359 1062 1.520 10000.000 0.000 0.494
67 201.00 1500.03 330 991 1.520 10000.000 0.000 0.494
68 204.00 1500.03 337 1040 1.520 10000.000 0.000 0.494
69 207.00 1500.03 330 996 1.520 10000.000 0.000 0.494
70 210.00 1500.03 383 1069 1.520 10000.000 0.000 0.494
71 213.00 1500.03 351 997 1.520 10000.000 0.000 0.494
72 216.00 1500.03 359 1018 1.520 10000.000 0.000 0.494
73 219.00 1500.03 400 1028 1.520 10000.000 0.000 0.494
74 222.00 1500.03 305 1026 1.520 10000.000 0.000 0.494
75 225.00 1500.03 334 954 1.520 10000.000 0.000 0.494
76 228.00 1500.03 360 1023 1.520 10000.000 0.000 0.494
77 231.00 1500.03 360 967 1.520 10000.000 0.000 0.494
78 234.00 1500.03 347 963 1.520 10000.000 0.000 0.494
79 237.00 1500.03 366 958 1.520 10000.000 0.000 0.494
80 240.00 1500.03 363 963 1.520 10000.000 0.000 0.494
81 243.00 1500.03 332 981 1.520 10000.000 0.000 0.494
82 246.00 1500.03 350 976 1.520 10000.000 0.000 0.494
83 249.00 1500.03 356 1013 1.520 10000.000 0.000 0.494
84 252.00 1500.03 343 1079 1.520 10000.000 0.000 0.494
85 255.00 1500.03 335 1005 1.520 10000.000 0.000 0.494
86 258.00 1500.03 362 1033 1.520 10000.000 0.000 0.494
87 261.00 1500.03 336 1042 1.520 10000.000 0.000 0.494
88 264.00 1500.03 320 949 1.520 10000.000 0.000 0.494
89 267.00 1500.03 343 1032 1.520 10000.000 0.000 0.494
90 270.00 1500.03 369 1020 1.520 10000.000 0.000 0.494
91 273.00 1500.03 397 970 1.520 10000.000 0.000 0.494
92 276.00 1500.03 341 1015 1.520 10000.000 0.000 0.494
93 279.00 1500.03 345 1046 1.520 10000.000 0.000 0.494
94 282.00 1500.03 344 1016 1.520 10000.000 0.000 0.494
95 285.00 1500.03 342 944 1.520 10000.000 0.000 0.494
96 288.00 1500.03 339 990 1.520 10000.000 0.000 0.494
97 291.00 1500.03 361 1006 1.520 10000.000 0.000 0.494
98 294.00 1500.03 354 1004 1.520 10000.000 0.000 0.494
99 297.00 1500.03 346 1048 1.520 10000.000 0.000 0.494
100 300.00 1500.03 359 1005 1.520 10000.000 0.000 0.494
101 303.00 1500.03 367 1027 1.520 10000.000 0.000 0.494
102 306.00 1500.03 371 1007 1.520 10000.000 0.000 0.494
103 309.00 1500.03 364 1008 1.520 10000.000 0.000 0.494
104 312.00 1500.03 355 1074 1.520 10000.000 0.000 0.494
105 315.00 1500.03 352 990 1.520 10000.000 0.000 0.494
106 318.00 1500.03 353 1025 1.520 10000.000 0.000 0.494
107 321.00 1500.03 354 929 1.520 10000.000 0.000 0.494
108 324.00 1500.03 372 978 1.520 10000.000 0.000 0.494
109 327.00 1500.03 320 989 1.520 10000.000 0.000 0.494
110 330.00 1500.03 363 1017 1.520 10000.000 0.000 0.494
111 333.00 1500.03 369 992 1.520 10000.000 0.000 0.494
112 336.00 1500.03 355 997 1.520 10000.000 0.000 0.494
113 339.00 1500.03 338 984 1.520 10000.000 0.000 0.494
114 342.00 1500.03 379 1009 1.520 10000.000 0.000 0.494
115 345.00 1500.03 351 1056 1.520 10000.000 0.000 0.494
116 348.00 1500.03 374 939 1.520 10000.000 0.000 0.494
117 351.00 1500.03 350 951 1.520 10000.000 0.000 0.494
118 354.00 1500.03 362 1086 1.520 10000.000 0.000 0.494
119 357.00 1500.03 365 1048 1.520 10000.000 0.000 0.494
120 360.00 1500.03 334 1037 1.520 10000.000 0.000 0.494
121 363.00 1500.03 344 992 1.520 10000.000 0.000 0.494
122 366.00 1500.03 347 1064 1.520 10000.000 0.000 0.494
123 369.00 1500.03 329 1005 1.520 10000.000 0.000 0.494
124 372.00 1500.03 368 1009 1.520 10000.000 0.000 0.494
125 375.00 1500.03 381 1028 1.520 10000.000 0.000 0.494
126 378.00 1500.03 394 1062 1.520 10000.000 0.000 0.494
127 381.00 1500.03 330 967 1.520 10000.000 0.000 0.494
128 384.00 1500.03 356 960 1.520 10000.000 0.000 0.494
129 387.00 1500.03 350 965 1.520 10000.000 0.000 0.494
130 390.00 1500.03 355 1048 1.520 10000.000 0.000 0.494
131 393.00 1500.03 332 995 1.520 10000.000 0.000 0.494
132 396.00 1500.03 384 1041 1.520 10000.000 0.000 0.494
133 399.00 1500.03 317 1008 1.520 10000.000 0.000 0.494
134 402.00 1500.03 333 958 1.520 10000.000 0.000 0.494
135 405.00 1500.03 356 969 1.520 10000.000 0.000 0.494
136 408.00 1500.03 370 991 1.520 10000.000 0.000 0.494
137 411.00 1500.03 348 1013 1.520 10000.000 0.000 0.494
138 414.00 1500.03 351 1017 1.520 10000.000 0.000 0.494
139 417.00 1500.03 334 942 1.520 10000.000 0.000 0.494
140 420.00 1500.03 336 1041 1.520 10000.000 0.000 0.494
141 423.00 1500.03 373 1009 1.520 10000.000 0.000 0.494
142 426.00 1500.03 372 1037 1.520 10000.000 0.000 0.494
143 429.00 1500.03 336 998 1.520 10000.000 0.000 0.494
144 432.00 1500.03 330 992 1.520 10000.000 0.000 0.494
