# BinNR microsec tot-time (s)  O-Beam AUX Ampl(V) f(Hz) phase(deg) chi(pos)
0 0.00 1500.00 88 98 1.520 10000.000 0.000 -0.835
1 3.00 1500.00 176 203 1.520 10000.000 0.000 -0.835
2 6.00 1500.00 162 196 1.520 10000.000 0.000 -0.835
3 9.00 1500.00 149 221 1.520 10000.000 0.000 -0.835
4 12.00 1500.00 160 180 1.520 10000.000 0.000 -0.835
5 15.00 1500.00 136 198 1.520 10000.000 0.000 -0.835
6 18.00 1500.00 174 203 1.520 10000.000 0.000 -0.835
7 21.00 1500.00 178 224 1.520 10000.000 0.000 -0.835
8 24.00 1500.00 148 198 1.520 10000.000 0.000 -0.835
9 27.00 1500.00 151 192 1.520 10000.000 0.000 -0.835
10 30.00 1500.00 144 204 1.520 10000.000 0.000 -0.835
11 33.00 1500.00 152 200 1.520 10000.000 0.000 -0.835
12 36.00 1500.00 136 200 1.520 10000.000 0.000 -0.835
13 39.00 1500.00 166 185 1.520 10000.000 0.000 -0.835
14 42.00 1500.00 150 200 1.520 10000.000 0.000 -0.835
15 45.00 1500.00 162 207 1.520 10000.000 0.000 -0.835
16 48.00 1500.00 153 207 1.520 10000.000 0.000 -0.835
17 51.00 1500.00 157 194 1.520 10000.000 0.000 -0.835
18 54.00 1500.00 150 213 1.520 10000.000 0.000 -0.835
19 57.00 1500.00 160 186 1.520 10000.000 0.000 -0.835
20 60.00 1500.00 143 183 1.520 10000.000 0.000 -0.835
21 63.00 1500.00 156 204 1.520 10000.000 0.000 -0.835
22 66.00 1500.00 135 218 1.520 10000.000 0.000 -0.835
23 69.00 1500.00 160 203 1.520 10000.000 0.000 -0.835
24 72.00 1500.00 163 210 1.520 10000.000 0.000 -0.835
25 75.00 1500.00 172 211 1.520 10000.000 0.000 -0.835
26 78.00 1500.00 152 202 1.520 10000.000 0.000 -0.835
27 81.00 1500.00 134 191 1.520 10000.000 0.000 -0.835
28 84.00 1500.00 148 229 1.520 10000.000 0.000 -0.835
29 87.00 1500.00 160 198 1.520 10000.000 0.000 -0.835
30 90.00 1500.00 155 204 1.520 10000.000 0.000 -0.835
31 93.00 1500.00 144 232 1.520 10000.000 0.000 -0.835
32 96.00 1500.00 144 194 1.520 10000.000 0.000 -0.835
33 99.00 1500.00 147 192 1.520 10000.000 0.000 -0.835
34 102.00 1500.00 150 208 1.520 10000.000 0.000 -0.835
35 105.00 1500.00 133 185 1.520 10000.000 0.000 -0.835
36 108.00 1500.00 166 215 1.520 10000.000 0.000 -0.835
37 111.00 1500.00 137 207 1.520 10000.000 0.000 -0.835
38 114.00 1500.00 150 226 1.520 10000.000 0.000 -0.835
39 117.00 1500.00 167 204 1.520 10000.000 0.000 -0.835
40 120.00 1500.00 164 185 1.520 10000.000 0.000 -0.835
41 123.00 1500.00 163 217 1.520 10000.000 0.000 -0.835
42 126.00 1500.00 142 219 1.520 10000.000 0.000 -0.835
43 129.00 1500.00 139 207 1.520 10000.000 0.000 -0.835
44 132.00 1500.00 155 233 1.520 10000.000 0.000 -0.835
45 135.00 1500.00 118 180 1.520 10000.000 0.000 -0.835
46 138.00 1500.00 171 216 1.520 10000.000 0.000 -0.835
47 141.00 1500.00 149 196 1.520 10000.000 0.000 -0.835
48 144.00 1500.00 172 192 1.520 10000.000 0.000 -0.835
49 147.00 1500.00 145 214 1.520 10000.000 0.000 -0.835
50 150.00 1500.00 167 195 1.520 10000.000 0.000 -0.835
51 153.00 1500.00 163 211 1.520 10000.000 0.000 -0.835
52 156.00 1500.00 168 175 1.520 10000.000 0.000 -0.835
53 159.00 1500.00 167 195 1.520 10000.000 0.000 -0.835
54 162.00 1500.00 168 214 1.520 10000.000 0.000 -0.835
55 165.00 1500.00 152 233 1.520 10000.000 0.000 -0.835
56 168.00 1500.00 127 202 1.520 10000.000 0.000 -0.835
57 171.00 1500.00 160 209 1.520 10000.000 0.000 -0.835
58 174.00 1500.00 159 196 1.520 10000.000 0.000 -0.835
59 177.00 1500.00 147 197 1.520 10000.000 0.000 -0.835
60 180.00 1500.00 138 205 1.520 10000.000 0.000 -0.835
61 183.00 1500.00 165 162 1.520 10000.000 0.000 -0.835
62 186.00 1500.00 160 192 1.520 10000.000 0.000 -0.835
63 189.00 1500.00 152 184 1.520 10000.000 0.000 -0.835
64 192.00 1500.00 145 220 1.520 10000.000 0.000 -0.835
65 195.00 1500.00 149 182 1.520 10000.000 0.000 -0.835
66 198.00 1500.00 161 189 1.520 10000.000 0.000 -0.835
67 201.00 1500.00 148 185 1.520 10000.000 0.000 -0.835
68 204.00 1500.00 145 199 1.520 10000.000 0.000 -0.835
69 207.00 1500.00 144 203 1.520 10000.000 0.000 -0.835
70 210.00 1500.00 151 215 1.520 10000.000 0.000 -0.835
71 213.00 1500.00 151 203 1.520 10000.000 0.000 -0.835
72 216.00 1500.00 140 190 1.520 10000.000 0.000 -0.835
73 219.00 1500.00 156 224 1.520 10000.000 0.000 -0.835
74 222.00 1500.00 145 200 1.520 10000.000 0.000 -0.835
75 225.00 1500.00 132 186 1.520 10000.000 0.000 -0.835
76 228.00 1500.00 153 219 1.520 10000.000 0.000 -0.835
77 231.00 1500.00 156 194 1.520 10000.000 0.000 -0.835
78 234.00 1500.00 147 213 1.520 10000.000 0.000 -0.835
79 237.00 1500.00 150 201 1.520 10000.000 0.000 -0.835
80 240.00 1500.00 166 184 1.520 10000.000 0.000 -0.835
81 243.00 1500.00 143 209 1.520 10000.000 0.000 -0.835
82 246.00 1500.00 152 174 1.520 10000.000 0.000 -0.835
83 249.00 1500.00 158 222 1.520 10000.000 0.000 -0.835
84 252.00 1500.00 157 210 1.520 10000.000 0.000 -0.835
85 255.00 1500.00 127 209 1.520 10000.000 0.000 -0.835
86 258.00 1500.00 140 194 1.520 10000.000 0.000 -0.835
87 261.00 1500.00 157 199 1.520 10000.000 0.000 -0.835
88 264.00 1500.00 162 195 1.520 10000.000 0.000 -0.835
89 267.00 1500.00 153 199 1.520 10000.000 0.000 -0.835
90 270.00 1500.00 166 208 1.520 10000.000 0.000 -0.835
91 273.00 1500.00 145 159 1.520 10000.000 0.000 -0.835
92 276.00 1500.00 142 198 1.520 10000.000 0.000 -0.835
93 279.00 1500.00 165 210 1.520 10000.000 0.000 -0.835
94 282.00 1500.00 158 203 1.520 10000.000 0.000 -0.835
95 285.00 1500.00 145 180 1.520 10000.000 0.000 -0.835
96 288.00 1500.00 170 203 1.520 10000.000 0.000 -0.835
97 291.00 1500.00 169 207 1.520 10000.000 0.000 -0.835
98 294.00 1500.00 162 215 1.520 10000.000 0.000 -0.835
99 297.00 1500.00 153 193 1.520 10000.000 0.000 -0.835
100 300.00 1500.00 139 204 1.520 10000.000 0.000 -0.835
101 303.00 1500.00 138 205 1.520 10000.000 0.000 -0.835
102 306.00 1500.00 165 212 1.520 10000.000 0.000 -0.835
103 309.00 1500.00 131 181 1.520 10000.000 0.000 -0.835
104 312.00 1500.00 131 191 1.520 10000.000 0.000 -0.835
105 315.00 1500.00 171 223 1.520 10000.000 0.000 -0.835
106 318.00 1500.00 145 206 1.520 10000.000 0.000 -0.835
107 321.00 1500.00 158 222 1.520 10000.000 0.000 -0.835
108 324.00 1500.00 165 200 1.520 10000.000 0.000 -0.835
109 327.00 1500.00 133 210 1.520 10000.000 0.000 -0.835
110 330.00 1500.00 148 197 1.520 10000.000 0.000 -0.835
111 333.00 1500.00 153 198 1.520 10000.000 0.000 -0.835
112 336.00 1500.00 161 197 1.520 10000.000 0.000 -0.835
113 339.00 1500.00 171 218 1.520 10000.000 0.000 -0.835
114 342.00 1500.00 172 210 1.520 10000.000 0.000 -0.835
115 345.00 1500.00 156 190 1.520 10000.000 0.000 -0.835
116 348.00 1500.00 147 203 1.520 10000.000 0.000 -0.835
117 351.00 1500.00 148 180 1.520 10000.000 0.000 -0.835
118 354.00 1500.00 134 175 1.520 10000.000 0.000 -0.835
119 357.00 1500.00 188 181 1.520 10000.000 0.000 -0.835
120 360.00 1500.00 155 239 1.520 10000.000 0.000 -0.835
121 363.00 1500.00 163 205 1.520 10000.000 0.000 -0.835
122 366.00 1500.00 133 202 1.520 10000.000 0.000 -0.835
123 369.00 1500.00 158 191 1.520 10000.000 0.000 -0.835
124 372.00 1500.00 133 190 1.520 10000.000 0.000 -0.835
125 375.00 1500.00 175 179 1.520 10000.000 0.000 -0.835
126 378.00 1500.00 161 201 1.520 10000.000 0.000 -0.835
127 381.00 1500.00 159 184 1.520 10000.000 0.000 -0.835
128 384.00 1500.00 120 185 1.520 10000.000 0.000 -0.835
129 387.00 1500.00 158 217 1.520 10000.000 0.000 -0.835
130 390.00 1500.00 140 222 1.520 10000.000 0.000 -0.835
131 393.00 1500.00 143 183 1.520 10000.000 0.000 -0.835
132 396.00 1500.00 171 200 1.520 10000.000 0.000 -0.835
133 399.00 1500.00 171 211 1.520 10000.000 0.000 -0.835
134 402.00 1500.00 157 187 1.520 10000.000 0.000 -0.835
135 405.00 1500.00 143 192 1.520 10000.000 0.000 -0.835
136 408.00 1500.00 160 217 1.520 10000.000 0.000 -0.835
137 411.00 1500.00 164 213 1.520 10000.000 0.000 -0.835
138 414.00 1500.00 171 208 1.520 10000.000 0.000 -0.835
139 417.00 1500.00 147 207 1.520 10000.000 0.000 -0.835
140 420.00 1500.00 145 217 1.520 10000.000 0.000 -0.835
141 423.00 1500.00 166 198 1.520 10000.000 0.000 -0.835
142 426.00 1500.00 141 232 1.520 10000.000 0.000 -0.835
143 429.00 1500.00 147 217 1.520 10000.000 0.000 -0.835
144 432.00 1500.00 170 201 1.520 10000.000 0.000 -0.835
