# BinNR microsec tot-time (s)  O-Beam AUX Ampl(V) f(Hz) phase(deg) chi(pos)
0 0.00 1500.00 112 230 1.520 10000.000 0.000 -1.165
1 3.00 1500.00 228 478 1.520 10000.000 0.000 -1.165
2 6.00 1500.00 234 488 1.520 10000.000 0.000 -1.165
3 9.00 1500.00 261 447 1.520 10000.000 0.000 -1.165
4 12.00 1500.00 223 460 1.520 10000.000 0.000 -1.165
5 15.00 1500.00 239 433 1.520 10000.000 0.000 -1.165
6 18.00 1500.00 242 439 1.520 10000.000 0.000 -1.165
7 21.00 1500.00 219 493 1.520 10000.000 0.000 -1.165
8 24.00 1500.00 243 471 1.520 10000.000 0.000 -1.165
9 27.00 1500.00 240 466 1.520 10000.000 0.000 -1.165
10 30.00 1500.00 252 473 1.520 10000.000 0.000 -1.165
11 33.00 1500.00 239 436 1.520 10000.000 0.000 -1.165
12 36.00 1500.00 228 461 1.520 10000.000 0.000 -1.165
13 39.00 1500.00 216 444 1.520 10000.000 0.000 -1.165
14 42.00 1500.00 247 470 1.520 10000.000 0.000 -1.165
15 45.00 1500.00 250 467 1.520 10000.000 0.000 -1.165
16 48.00 1500.00 216 441 1.520 10000.000 0.000 -1.165
17 51.00 1500.00 214 447 1.520 10000.000 0.000 -1.165
18 54.00 1500.00 240 461 1.520 10000.000 0.000 -1.165
19 57.00 1500.00 266 461 1.520 10000.000 0.000 -1.165
20 60.00 1500.00 248 446 1.520 10000.000 0.000 -1.165
21 63.00 1500.00 221 460 1.520 10000.000 0.000 -1.165
22 66.00 1500.00 233 452 1.520 10000.000 0.000 -1.165
23 69.00 1500.00 215 446 1.520 10000.000 0.000 -1.165
24 72.00 1500.00 222 461 1.520 10000.000 0.000 -1.165
25 75.00 1500.00 226 466 1.520 10000.000 0.000 -1.165
26 78.00 1500.00 230 471 1.520 10000.000 0.000 -1.165
27 81.00 1500.00 236 464 1.520 10000.000 0.000 -1.165
28 84.00 1500.00 232 438 1.520 10000.000 0.000 -1.165
29 87.00 1500.00 220 415 1.520 10000.000 0.000 -1.165
30 90.00 1500.00 208 469 1.520 10000.000 0.000 -1.165
31 93.00 1500.00 229 464 1.520 10000.000 0.000 -1.165
32 96.00 1500.00 212 512 1.520 10000.000 0.000 -1.165
33 99.00 1500.00 235 488 1.520 10000.000 0.000 -1.165
34 102.00 1500.00 234 468 1.520 10000.000 0.000 -1.165
35 105.00 1500.00 200 472 1.520 10000.000 0.000 -1.165
36 108.00 1500.00 227 486 1.520 10000.000 0.000 -1.165
37 111.00 1500.00 200 468 1.520 10000.000 0.000 -1.165
38 114.00 1500.00 180 458 1.520 10000.000 0.000 -1.165
39 117.00 1500.00 226 495 1.520 10000.000 0.000 -1.165
40 120.00 1500.00 232 487 1.520 10000.000 0.000 -1.165
41 123.00 1500.00 224 459 1.520 10000.000 0.000 -1.165
42 126.00 1500.00 245 479 1.520 10000.000 0.000 -1.165
43 129.00 1500.00 205 450 1.520 10000.000 0.000 -1.165
44 132.00 1500.00 248 450 1.520 10000.000 0.000 -1.165
45 135.00 1500.00 217 476 1.520 10000.000 0.000 -1.165
46 138.00 1500.00 218 491 1.520 10000.000 0.000 -1.165
47 141.00 1500.00 232 439 1.520 10000.000 0.000 -1.165
48 144.00 1500.00 247 497 1.520 10000.000 0.000 -1.165
49 147.00 1500.00 238 447 1.520 10000.000 0.000 -1.165
50 150.00 1500.00 230 460 1.520 10000.000 0.000 -1.165
51 153.00 1500.00 237 468 1.520 10000.000 0.000 -1.165
52 156.00 1500.00 234 482 1.520 10000.000 0.000 -1.165
53 159.00 1500.00 231 481 1.520 10000.000 0.000 -1.165
54 162.00 1500.00 211 477 1.520 10000.000 0.000 -1.165
55 165.00 1500.00 229 412 1.520 10000.000 0.000 -1.165
56 168.00 1500.00 229 440 1.520 10000.000 0.000 -1.165
57 171.00 1500.00 195 437 1.520 10000.000 0.000 -1.165
58 174.00 1500.00 221 444 1.520 10000.000 0.000 -1.165
59 177.00 1500.00 233 491 1.520 10000.000 0.000 -1.165
60 180.00 1500.00 241 458 1.520 10000.000 0.000 -1.165
61 183.00 1500.00 250 456 1.520 10000.000 0.000 -1.165
62 186.00 1500.00 232 424 1.520 10000.000 0.000 -1.165
63 189.00 1500.00 198 467 1.520 10000.000 0.000 -1.165
64 192.00 1500.00 240 450 1.520 10000.000 0.000 -1.165
65 195.00 1500.00 197 442 1.520 10000.000 0.000 -1.165
66 198.00 1500.00 237 459 1.520 10000.000 0.000 -1.165
67 201.00 1500.00 195 476 1.520 10000.000 0.000 -1.165
68 204.00 1500.00 218 449 1.520 10000.000 0.000 -1.165
69 207.00 1500.00 265 460 1.520 10000.000 0.000 -1.165
70 210.00 1500.00 234 452 1.520 10000.000 0.000 -1.165
71 213.00 1500.00 231 437 1.520 10000.000 0.000 -1.165
72 216.00 1500.00 211 512 1.520 10000.000 0.000 -1.165
73 219.00 1500.00 205 435 1.520 10000.000 0.000 -1.165
74 222.00 1500.00 246 482 1.520 10000.000 0.000 -1.165
75 225.00 1500.00 226 476 1.520 10000.000 0.000 -1.165
76 228.00 1500.00 191 449 1.520 10000.000 0.000 -1.165
77 231.00 1500.00 231 442 1.520 10000.000 0.000 -1.165
78 234.00 1500.00 225 466 1.520 10000.000 0.000 -1.165
79 237.00 1500.00 248 448 1.520 10000.000 0.000 -1.165
80 240.00 1500.00 217 444 1.520 10000.000 0.000 -1.165
81 243.00 1500.00 225 451 1.520 10000.000 0.000 -1.165
82 246.00 1500.00 231 458 1.520 10000.000 0.000 -1.165
83 249.00 1500.00 237 431 1.520 10000.000 0.000 -1.165
84 252.00 1500.00 231 496 1.520 10000.000 0.000 -1.165
85 255.00 1500.00 206 431 1.520 10000.000 0.000 -1.165
86 258.00 1500.00 234 457 1.520 10000.000 0.000 -1.165
87 261.00 1500.00 237 432 1.520 10000.000 0.000 -1.165
88 264.00 1500.00 248 488 1.520 10000.000 0.000 -1.165
89 267.00 1500.00 242 439 1.520 10000.000 0.000 -1.165
90 270.00 1500.00 228 465 1.520 10000.000 0.000 -1.165
91 273.00 1500.00 237 440 1.520 10000.000 0.000 -1.165
92 276.00 1500.00 207 465 1.520 10000.000 0.000 -1.165
93 279.00 1500.00 233 451 1.520 10000.000 0.000 -1.165
94 282.00 1500.00 224 463 1.520 10000.000 0.000 -1.165
95 285.00 1500.00 217 481 1.520 10000.000 0.000 -1.165
96 288.00 1500.00 249 477 1.520 10000.000 0.000 -1.165
97 291.00 1500.00 243 462 1.520 10000.000 0.000 -1.165
98 294.00 1500.00 225 465 1.520 10000.000 0.000 -1.165
99 297.00 1500.00 220 460 1.520 10000.000 0.000 -1.165
100 300.00 1500.00 207 474 1.520 10000.000 0.000 -1.165
101 303.00 1500.00 216 449 1.520 10000.000 0.000 -1.165
102 306.00 1500.00 224 459 1.520 10000.000 0.000 -1.165
103 309.00 1500.00 200 422 1.520 10000.000 0.000 -1.165
104 312.00 1500.00 215 432 1.520 10000.000 0.000 -1.165
105 315.00 1500.00 227 452 1.520 10000.000 0.000 -1.165
106 318.00 1500.00 207 446 1.520 10000.000 0.000 -1.165
107 321.00 1500.00 243 460 1.520 10000.000 0.000 -1.165
108 324.00 1500.00 230 451 1.520 10000.000 0.000 -1.165
109 327.00 1500.00 242 419 1.520 10000.000 0.000 -1.165
110 330.00 1500.00 232 476 1.520 10000.000 0.000 -1.165
111 333.00 1500.00 253 446 1.520 10000.000 0.000 -1.165
112 336.00 1500.00 246 457 1.520 10000.000 0.000 -1.165
113 339.00 1500.00 239 476 1.520 10000.000 0.000 -1.165
114 342.00 1500.00 241 425 1.520 10000.000 0.000 -1.165
115 345.00 1500.00 198 473 1.520 10000.000 0.000 -1.165
116 348.00 1500.00 226 483 1.520 10000.000 0.000 -1.165
117 351.00 1500.00 259 425 1.520 10000.000 0.000 -1.165
118 354.00 1500.00 214 458 1.520 10000.000 0.000 -1.165
119 357.00 1500.00 238 457 1.520 10000.000 0.000 -1.165
120 360.00 1500.00 216 468 1.520 10000.000 0.000 -1.165
121 363.00 1500.00 213 458 1.520 10000.000 0.000 -1.165
122 366.00 1500.00 245 462 1.520 10000.000 0.000 -1.165
123 369.00 1500.00 228 440 1.520 10000.000 0.000 -1.165
124 372.00 1500.00 201 447 1.520 10000.000 0.000 -1.165
125 375.00 1500.00 222 471 1.520 10000.000 0.000 -1.165
126 378.00 1500.00 244 475 1.520 10000.000 0.000 -1.165
127 381.00 1500.00 229 474 1.520 10000.000 0.000 -1.165
128 384.00 1500.00 205 470 1.520 10000.000 0.000 -1.165
129 387.00 1500.00 240 462 1.520 10000.000 0.000 -1.165
130 390.00 1500.00 234 405 1.520 10000.000 0.000 -1.165
131 393.00 1500.00 223 476 1.520 10000.000 0.000 -1.165
132 396.00 1500.00 219 458 1.520 10000.000 0.000 -1.165
133 399.00 1500.00 232 491 1.520 10000.000 0.000 -1.165
134 402.00 1500.00 233 439 1.520 10000.000 0.000 -1.165
135 405.00 1500.00 197 469 1.520 10000.000 0.000 -1.165
136 408.00 1500.00 231 451 1.520 10000.000 0.000 -1.165
137 411.00 1500.00 218 469 1.520 10000.000 0.000 -1.165
138 414.00 1500.00 213 523 1.520 10000.000 0.000 -1.165
139 417.00 1500.00 231 446 1.520 10000.000 0.000 -1.165
140 420.00 1500.00 208 440 1.520 10000.000 0.000 -1.165
141 423.00 1500.00 221 416 1.520 10000.000 0.000 -1.165
142 426.00 1500.00 234 471 1.520 10000.000 0.000 -1.165
143 429.00 1500.00 212 473 1.520 10000.000 0.000 -1.165
144 432.00 1500.00 203 515 1.520 10000.000 0.000 -1.165
