# BinNR microsec tot-time (s)  O-Beam AUX Ampl(V) f(Hz) phase(deg) chi(pos)
0 0.00 1500.01 81 176 1.520 10000.000 0.000 1.494
1 3.00 1500.01 177 380 1.520 10000.000 0.000 1.494
2 6.00 1500.01 162 361 1.520 10000.000 0.000 1.494
3 9.00 1500.01 162 390 1.520 10000.000 0.000 1.494
4 12.00 1500.01 162 325 1.520 10000.000 0.000 1.494
5 15.00 1500.01 153 358 1.520 10000.000 0.000 1.494
6 18.00 1500.01 171 340 1.520 10000.000 0.000 1.494
7 21.00 1500.01 173 347 1.520 10000.000 0.000 1.494
8 24.00 1500.01 146 407 1.520 10000.000 0.000 1.494
9 27.00 1500.01 170 341 1.520 10000.000 0.000 1.494
10 30.00 1500.01 188 362 1.520 10000.000 0.000 1.494
11 33.00 1500.01 167 365 1.520 10000.000 0.000 1.494
12 36.00 1500.01 180 351 1.520 10000.000 0.000 1.494
13 39.00 1500.01 196 380 1.520 10000.000 0.000 1.494
14 42.00 1500.01 177 353 1.520 10000.000 0.000 1.494
15 45.00 1500.01 182 353 1.520 10000.000 0.000 1.494
16 48.00 1500.01 170 368 1.520 10000.000 0.000 1.494
17 51.00 1500.01 157 359 1.520 10000.000 0.000 1.494
18 54.00 1500.01 176 324 1.520 10000.000 0.000 1.494
19 57.00 1500.01 155 346 1.520 10000.000 0.000 1.494
20 60.00 1500.01 146 406 1.520 10000.000 0.000 1.494
21 63.00 1500.01 184 324 1.520 10000.000 0.000 1.494
22 66.00 1500.01 167 348 1.520 10000.000 0.000 1.494
23 69.00 1500.01 161 357 1.520 10000.000 0.000 1.494
24 72.00 1500.01 173 361 1.520 10000.000 0.000 1.494
25 75.00 1500.01 189 350 1.520 10000.000 0.000 1.494
26 78.00 1500.01 148 404 1.520 10000.000 0.000 1.494
27 81.00 1500.01 161 380 1.520 10000.000 0.000 1.494
28 84.00 1500.01 180 346 1.520 10000.000 0.000 1.494
29 87.00 1500.01 181 369 1.520 10000.000 0.000 1.494
30 90.00 1500.01 165 366 1.520 10000.000 0.000 1.494
31 93.00 1500.01 142 348 1.520 10000.000 0.000 1.494
32 96.00 1500.01 153 349 1.520 10000.000 0.000 1.494
33 99.00 1500.01 155 342 1.520 10000.000 0.000 1.494
34 102.00 1500.01 186 400 1.520 10000.000 0.000 1.494
35 105.00 1500.01 183 327 1.520 10000.000 0.000 1.494
36 108.00 1500.01 184 381 1.520 10000.000 0.000 1.494
37 111.00 1500.01 169 362 1.520 10000.000 0.000 1.494
38 114.00 1500.01 181 362 1.520 10000.000 0.000 1.494
39 117.00 1500.01 153 346 1.520 10000.000 0.000 1.494
40 120.00 1500.01 203 359 1.520 10000.000 0.000 1.494
41 123.00 1500.01 159 369 1.520 10000.000 0.000 1.494
42 126.00 1500.01 192 381 1.520 10000.000 0.000 1.494
43 129.00 1500.01 156 365 1.520 10000.000 0.000 1.494
44 132.00 1500.01 170 375 1.520 10000.000 0.000 1.494
45 135.00 1500.01 183 342 1.520 10000.000 0.000 1.494
46 138.00 1500.01 184 372 1.520 10000.000 0.000 1.494
47 141.00 1500.01 151 375 1.520 10000.000 0.000 1.494
48 144.00 1500.01 163 367 1.520 10000.000 0.000 1.494
49 147.00 1500.01 186 376 1.520 10000.000 0.000 1.494
50 150.00 1500.01 183 360 1.520 10000.000 0.000 1.494
51 153.00 1500.01 162 329 1.520 10000.000 0.000 1.494
52 156.00 1500.01 167 382 1.520 10000.000 0.000 1.494
53 159.00 1500.01 158 350 1.520 10000.000 0.000 1.494
54 162.00 1500.01 176 359 1.520 10000.000 0.000 1.494
55 165.00 1500.01 180 360 1.520 10000.000 0.000 1.494
56 168.00 1500.01 155 368 1.520 10000.000 0.000 1.494
57 171.00 1500.01 171 357 1.520 10000.000 0.000 1.494
58 174.00 1500.01 171 419 1.520 10000.000 0.000 1.494
59 177.00 1500.01 149 374 1.520 10000.000 0.000 1.494
60 180.00 1500.01 178 375 1.520 10000.000 0.000 1.494
61 183.00 1500.01 155 354 1.520 10000.000 0.000 1.494
62 186.00 1500.01 174 371 1.520 10000.000 0.000 1.494
63 189.00 1500.01 175 392 1.520 10000.000 0.000 1.494
64 192.00 1500.01 161 358 1.520 10000.000 0.000 1.494
65 195.00 1500.01 172 330 1.520 10000.000 0.000 1.494
66 198.00 1500.01 183 389 1.520 10000.000 0.000 1.494
67 201.00 1500.01 143 370 1.520 10000.000 0.000 1.494
68 204.00 1500.01 176 344 1.520 10000.000 0.000 1.494
69 207.00 1500.01 156 391 1.520 10000.000 0.000 1.494
70 210.00 1500.01 171 382 1.520 10000.000 0.000 1.494
71 213.00 1500.01 165 364 1.520 10000.000 0.000 1.494
72 216.00 1500.01 165 346 1.520 10000.000 0.000 1.494
73 219.00 1500.01 191 383 1.520 10000.000 0.000 1.494
74 222.00 1500.01 157 385 1.520 10000.000 0.000 1.494
75 225.00 1500.01 182 328 1.520 10000.000 0.000 1.494
76 228.00 1500.01 169 368 1.520 10000.000 0.000 1.494
77 231.00 1500.01 199 371 1.520 10000.000 0.000 1.494
78 234.00 1500.01 179 388 1.520 10000.000 0.000 1.494
79 237.00 1500.01 171 355 1.520 10000.000 0.000 1.494
80 240.00 1500.01 190 354 1.520 10000.000 0.000 1.494
81 243.00 1500.01 183 338 1.520 10000.000 0.000 1.494
82 246.00 1500.01 125 413 1.520 10000.000 0.000 1.494
83 249.00 1500.01 170 382 1.520 10000.000 0.000 1.494
84 252.00 1500.01 155 359 1.520 10000.000 0.000 1.494
85 255.00 1500.01 173 344 1.520 10000.000 0.000 1.494
86 258.00 1500.01 171 383 1.520 10000.000 0.000 1.494
87 261.00 1500.01 146 359 1.520 10000.000 0.000 1.494
88 264.00 1500.01 174 356 1.520 10000.000 0.000 1.494
89 267.00 1500.01 163 380 1.520 10000.000 0.000 1.494
90 270.00 1500.01 162 372 1.520 10000.000 0.000 1.494
91 273.00 1500.01 148 362 1.520 10000.000 0.000 1.494
92 276.00 1500.01 164 340 1.520 10000.000 0.000 1.494
93 279.00 1500.01 169 378 1.520 10000.000 0.000 1.494
94 282.00 1500.01 169 366 1.520 10000.000 0.000 1.494
95 285.00 1500.01 172 390 1.520 10000.000 0.000 1.494
96 288.00 1500.01 198 365 1.520 10000.000 0.000 1.494
97 291.00 1500.01 177 378 1.520 10000.000 0.000 1.494
98 294.00 1500.01 159 391 1.520 10000.000 0.000 1.494
99 297.00 1500.01 185 357 1.520 10000.000 0.000 1.494
100 300.00 1500.01 171 383 1.520 10000.000 0.000 1.494
101 303.00 1500.01 166 361 1.520 10000.000 0.000 1.494
102 306.00 1500.01 177 334 1.520 10000.000 0.000 1.494
103 309.00 1500.01 151 368 1.520 10000.000 0.000 1.494
104 312.00 1500.01 189 356 1.520 10000.000 0.000 1.494
105 315.00 1500.01 179 362 1.520 10000.000 0.000 1.494
106 318.00 1500.01 171 331 1.520 10000.000 0.000 1.494
107 321.00 1500.01 164 365 1.520 10000.000 0.000 1.494
108 324.00 1500.01 188 415 1.520 10000.000 0.000 1.494
109 327.00 1500.01 160 315 1.520 10000.000 0.000 1.494
110 330.00 1500.01 165 338 1.520 10000.000 0.000 1.494
111 333.00 1500.01 205 334 1.520 10000.000 0.000 1.494
112 336.00 1500.01 167 354 1.520 10000.000 0.000 1.494
113 339.00 1500.01 155 374 1.520 10000.000 0.000 1.494
114 342.00 1500.01 195 383 1.520 10000.000 0.000 1.494
115 345.00 1500.01 171 368 1.520 10000.000 0.000 1.494
116 348.00 1500.01 172 415 1.520 10000.000 0.000 1.494
117 351.00 1500.01 162 372 1.520 10000.000 0.000 1.494
118 354.00 1500.01 160 364 1.520 10000.000 0.000 1.494
119 357.00 1500.01 179 346 1.520 10000.000 0.000 1.494
120 360.00 1500.01 163 349 1.520 10000.000 0.000 1.494
121 363.00 1500.01 204 366 1.520 10000.000 0.000 1.494
122 366.00 1500.01 178 348 1.520 10000.000 0.000 1.494
123 369.00 1500.01 172 358 1.520 10000.000 0.000 1.494
124 372.00 1500.01 172 336 1.520 10000.000 0.000 1.494
125 375.00 1500.01 171 352 1.520 10000.000 0.000 1.494
126 378.00 1500.01 185 371 1.520 10000.000 0.000 1.494
127 381.00 1500.01 185 341 1.520 10000.000 0.000 1.494
128 384.00 1500.01 187 361 1.520 10000.000 0.000 1.494
129 387.00 1500.01 163 355 1.520 10000.000 0.000 1.494
130 390.00 1500.01 162 373 1.520 10000.000 0.000 1.494
131 393.00 1500.01 171 357 1.520 10000.000 0.000 1.494
132 396.00 1500.01 155 369 1.520 10000.000 0.000 1.494
133 399.00 1500.01 168 363 1.520 10000.000 0.000 1.494
134 402.00 1500.01 176 358 1.520 10000.000 0.000 1.494
135 405.00 1500.01 185 357 1.520 10000.000 0.000 1.494
136 408.00 1500.01 152 328 1.520 10000.000 0.000 1.494
137 411.00 1500.01 161 338 1.520 10000.000 0.000 1.494
138 414.00 1500.01 164 353 1.520 10000.000 0.000 1.494
139 417.00 1500.01 173 351 1.520 10000.000 0.000 1.494
140 420.00 1500.01 163 364 1.520 10000.000 0.000 1.494
141 423.00 1500.01 157 363 1.520 10000.000 0.000 1.494
142 426.00 1500.01 179 390 1.520 10000.000 0.000 1.494
143 429.00 1500.01 178 352 1.520 10000.000 0.000 1.494
144 432.00 1500.01 159 366 1.520 10000.000 0.000 1.494
