# BinNR microsec tot-time (s)  O-Beam AUX Ampl(V) f(Hz) phase(deg) chi(pos)
0 0.00 1500.00 120 270 1.520 10000.000 0.000 0.835
1 3.00 1500.00 274 509 1.520 10000.000 0.000 0.835
2 6.00 1500.00 259 564 1.520 10000.000 0.000 0.835
3 9.00 1500.00 238 508 1.520 10000.000 0.000 0.835
4 12.00 1500.00 237 558 1.520 10000.000 0.000 0.835
5 15.00 1500.00 269 558 1.520 10000.000 0.000 0.835
6 18.00 1500.00 265 534 1.520 10000.000 0.000 0.835
7 21.00 1500.00 244 490 1.520 10000.000 0.000 0.835
8 24.00 1500.00 243 515 1.520 10000.000 0.000 0.835
9 27.00 1500.00 265 548 1.520 10000.000 0.000 0.835
10 30.00 1500.00 271 517 1.520 10000.000 0.000 0.835
11 33.00 1500.00 242 505 1.520 10000.000 0.000 0.835
12 36.00 1500.00 233 551 1.520 10000.000 0.000 0.835
13 39.00 1500.00 265 524 1.520 10000.000 0.000 0.835
14 42.00 1500.00 242 555 1.520 10000.000 0.000 0.835
15 45.00 1500.00 229 485 1.520 10000.000 0.000 0.835
16 48.00 1500.00 241 495 1.520 10000.000 0.000 0.835
17 51.00 1500.00 246 499 1.520 10000.000 0.000 0.835
18 54.00 1500.00 235 572 1.520 10000.000 0.000 0.835
19 57.00 1500.00 236 520 1.520 10000.000 0.000 0.835
20 60.00 1500.00 246 516 1.520 10000.000 0.000 0.835
21 63.00 1500.00 256 529 1.520 10000.000 0.000 0.835
22 66.00 1500.00 248 523 1.520 10000.000 0.000 0.835
23 69.00 1500.00 226 503 1.520 10000.000 0.000 0.835
24 72.00 1500.00 280 533 1.520 10000.000 0.000 0.835
25 75.00 1500.00 239 549 1.520 10000.000 0.000 0.835
26 78.00 1500.00 238 522 1.520 10000.000 0.000 0.835
27 81.00 1500.00 260 554 1.520 10000.000 0.000 0.835
28 84.00 1500.00 257 534 1.520 10000.000 0.000 0.835
29 87.00 1500.00 235 518 1.520 10000.000 0.000 0.835
30 90.00 1500.00 218 522 1.520 10000.000 0.000 0.835
31 93.00 1500.00 223 540 1.520 10000.000 0.000 0.835
32 96.00 1500.00 239 516 1.520 10000.000 0.000 0.835
33 99.00 1500.00 266 533 1.520 10000.000 0.000 0.835
34 102.00 1500.00 247 527 1.520 10000.000 0.000 0.835
35 105.00 1500.00 229 531 1.520 10000.000 0.000 0.835
36 108.00 1500.00 241 586 1.520 10000.000 0.000 0.835
37 111.00 1500.00 235 521 1.520 10000.000 0.000 0.835
38 114.00 1500.00 242 522 1.520 10000.000 0.000 0.835
39 117.00 1500.00 233 528 1.520 10000.000 0.000 0.835
40 120.00 1500.00 232 547 1.520 10000.000 0.000 0.835
41 123.00 1500.00 247 544 1.520 10000.000 0.000 0.835
42 126.00 1500.00 245 544 1.520 10000.000 0.000 0.835
43 129.00 1500.00 262 531 1.520 10000.000 0.000 0.835
44 132.00 1500.00 256 551 1.520 10000.000 0.000 0.835
45 135.00 1500.00 241 494 1.520 10000.000 0.000 0.835
46 138.00 1500.00 233 557 1.520 10000.000 0.000 0.835
47 141.00 1500.00 258 503 1.520 10000.000 0.000 0.835
48 144.00 1500.00 229 542 1.520 10000.000 0.000 0.835
49 147.00 1500.00 229 548 1.520 10000.000 0.000 0.835
50 150.00 1500.00 239 551 1.520 10000.000 0.000 0.835
51 153.00 1500.00 255 476 1.520 10000.000 0.000 0.835
52 156.00 1500.00 237 535 1.520 10000.000 0.000 0.835
53 159.00 1500.00 251 518 1.520 10000.000 0.000 0.835
54 162.00 1500.00 257 484 1.520 10000.000 0.000 0.835
55 165.00 1500.00 215 517 1.520 10000.000 0.000 0.835
56 168.00 1500.00 252 545 1.520 10000.000 0.000 0.835
57 171.00 1500.00 245 528 1.520 10000.000 0.000 0.835
58 174.00 1500.00 227 497 1.520 10000.000 0.000 0.835
59 177.00 1500.00 264 529 1.520 10000.000 0.000 0.835
60 180.00 1500.00 249 555 1.520 10000.000 0.000 0.835
61 183.00 1500.00 243 526 1.520 10000.000 0.000 0.835
62 186.00 1500.00 249 553 1.520 10000.000 0.000 0.835
63 189.00 1500.00 227 559 1.520 10000.000 0.000 0.835
64 192.00 1500.00 226 538 1.520 10000.000 0.000 0.835
65 195.00 1500.00 254 448 1.520 10000.000 0.000 0.835
66 198.00 1500.00 239 526 1.520 10000.000 0.000 0.835
67 201.00 1500.00 245 521 1.520 10000.000 0.000 0.835
68 204.00 1500.00 240 497 1.520 10000.000 0.000 0.835
69 207.00 1500.00 243 525 1.520 10000.000 0.000 0.835
70 210.00 1500.00 237 528 1.520 10000.000 0.000 0.835
71 213.00 1500.00 193 509 1.520 10000.000 0.000 0.835
72 216.00 1500.00 240 558 1.520 10000.000 0.000 0.835
73 219.00 1500.00 280 561 1.520 10000.000 0.000 0.835
74 222.00 1500.00 255 525 1.520 10000.000 0.000 0.835
75 225.00 1500.00 234 495 1.520 10000.000 0.000 0.835
76 228.00 1500.00 247 517 1.520 10000.000 0.000 0.835
77 231.00 1500.00 233 528 1.520 10000.000 0.000 0.835
78 234.00 1500.00 239 560 1.520 10000.000 0.000 0.835
79 237.00 1500.00 231 518 1.520 10000.000 0.000 0.835
80 240.00 1500.00 264 553 1.520 10000.000 0.000 0.835
81 243.00 1500.00 219 483 1.520 10000.000 0.000 0.835
82 246.00 1500.00 249 519 1.520 10000.000 0.000 0.835
83 249.00 1500.00 214 519 1.520 10000.000 0.000 0.835
84 252.00 1500.00 256 499 1.520 10000.000 0.000 0.835
85 255.00 1500.00 245 550 1.520 10000.000 0.000 0.835
86 258.00 1500.00 261 569 1.520 10000.000 0.000 0.835
87 261.00 1500.00 248 550 1.520 10000.000 0.000 0.835
88 264.00 1500.00 257 496 1.520 10000.000 0.000 0.835
89 267.00 1500.00 227 565 1.520 10000.000 0.000 0.835
90 270.00 1500.00 253 514 1.520 10000.000 0.000 0.835
91 273.00 1500.00 265 494 1.520 10000.000 0.000 0.835
92 276.00 1500.00 266 531 1.520 10000.000 0.000 0.835
93 279.00 1500.00 230 523 1.520 10000.000 0.000 0.835
94 282.00 1500.00 268 535 1.520 10000.000 0.000 0.835
95 285.00 1500.00 245 528 1.520 10000.000 0.000 0.835
96 288.00 1500.00 282 555 1.520 10000.000 0.000 0.835
97 291.00 1500.00 234 543 1.520 10000.000 0.000 0.835
98 294.00 1500.00 239 503 1.520 10000.000 0.000 0.835
99 297.00 1500.00 239 525 1.520 10000.000 0.000 0.835
100 300.00 1500.00 256 590 1.520 10000.000 0.000 0.835
101 303.00 1500.00 245 546 1.520 10000.000 0.000 0.835
102 306.00 1500.00 231 539 1.520 10000.000 0.000 0.835
103 309.00 1500.00 248 553 1.520 10000.000 0.000 0.835
104 312.00 1500.00 234 541 1.520 10000.000 0.000 0.835
105 315.00 1500.00 246 524 1.520 10000.000 0.000 0.835
106 318.00 1500.00 268 502 1.520 10000.000 0.000 0.835
107 321.00 1500.00 244 554 1.520 10000.000 0.000 0.835
108 324.00 1500.00 266 490 1.520 10000.000 0.000 0.835
109 327.00 1500.00 255 501 1.520 10000.000 0.000 0.835
110 330.00 1500.00 249 502 1.520 10000.000 0.000 0.835
111 333.00 1500.00 246 497 1.520 10000.000 0.000 0.835
112 336.00 1500.00 263 497 1.520 10000.000 0.000 0.835
113 339.00 1500.00 256 514 1.520 10000.000 0.000 0.835
114 342.00 1500.00 219 518 1.520 10000.000 0.000 0.835
115 345.00 1500.00 243 520 1.520 10000.000 0.000 0.835
116 348.00 1500.00 259 490 1.520 10000.000 0.000 0.835
117 351.00 1500.00 247 531 1.520 10000.000 0.000 0.835
118 354.00 1500.00 241 520 1.520 10000.000 0.000 0.835
119 357.00 1500.00 240 492 1.520 10000.000 0.000 0.835
120 360.00 1500.00 274 523 1.520 10000.000 0.000 0.835
121 363.00 1500.00 253 492 1.520 10000.000 0.000 0.835
122 366.00 1500.00 247 559 1.520 10000.000 0.000 0.835
123 369.00 1500.00 229 517 1.520 10000.000 0.000 0.835
124 372.00 1500.00 255 503 1.520 10000.000 0.000 0.835
125 375.00 1500.00 251 507 1.520 10000.000 0.000 0.835
126 378.00 1500.00 237 549 1.520 10000.000 0.000 0.835
127 381.00 1500.00 232 577 1.520 10000.000 0.000 0.835
128 384.00 1500.00 255 541 1.520 10000.000 0.000 0.835
129 387.00 1500.00 233 552 1.520 10000.000 0.000 0.835
130 390.00 1500.00 252 524 1.520 10000.000 0.000 0.835
131 393.00 1500.00 255 528 1.520 10000.000 0.000 0.835
132 396.00 1500.00 246 523 1.520 10000.000 0.000 0.835
133 399.00 1500.00 233 531 1.520 10000.000 0.000 0.835
134 402.00 1500.00 220 510 1.520 10000.000 0.000 0.835
135 405.00 1500.00 226 555 1.520 10000.000 0.000 0.835
136 408.00 1500.00 263 545 1.520 10000.000 0.000 0.835
137 411.00 1500.00 232 534 1.520 10000.000 0.000 0.835
138 414.00 1500.00 243 539 1.520 10000.000 0.000 0.835
139 417.00 1500.00 262 513 1.520 10000.000 0.000 0.835
140 420.00 1500.00 225 546 1.520 10000.000 0.000 0.835
141 423.00 1500.00 235 519 1.520 10000.000 0.000 0.835
142 426.00 1500.00 239 505 1.520 10000.000 0.000 0.835
143 429.00 1500.00 227 555 1.520 10000.000 0.000 0.835
144 432.00 1500.00 225 519 1.520 10000.000 0.000 0.835
