# BinNR microsec tot-time (s)  O-Beam AUX Ampl(V) f(Hz) phase(deg) chi(pos)
0 0.00 1500.00 143 583 1.520 10000.000 0.000 0.143
1 3.00 1500.00 330 1096 1.520 10000.000 0.000 0.143
2 6.00 1500.00 410 1119 1.520 10000.000 0.000 0.143
3 9.00 1500.00 384 1151 1.520 10000.000 0.000 0.143
4 12.00 1500.00 371 1175 1.520 10000.000 0.000 0.143
5 15.00 1500.00 373 1093 1.520 10000.000 0.000 0.143
6 18.00 1500.00 364 1207 1.520 10000.000 0.000 0.143
7 21.00 1500.00 356 1181 1.520 10000.000 0.000 0.143
8 24.00 1500.00 358 1224 1.520 10000.000 0.000 0.143
9 27.00 1500.00 366 1183 1.520 10000.000 0.000 0.143
10 30.00 1500.00 361 1187 1.520 10000.000 0.000 0.143
11 33.00 1500.00 355 1124 1.520 10000.000 0.000 0.143
12 36.00 1500.00 392 1145 1.520 10000.000 0.000 0.143
13 39.00 1500.00 342 1173 1.520 10000.000 0.000 0.143
14 42.00 1500.00 373 1158 1.520 10000.000 0.000 0.143
15 45.00 1500.00 334 1164 1.520 10000.000 0.000 0.143
16 48.00 1500.00 390 1168 1.520 10000.000 0.000 0.143
17 51.00 1500.00 349 1111 1.520 10000.000 0.000 0.143
18 54.00 1500.00 366 1190 1.520 10000.000 0.000 0.143
19 57.00 1500.00 382 1130 1.520 10000.000 0.000 0.143
20 60.00 1500.00 357 1192 1.520 10000.000 0.000 0.143
21 63.00 1500.00 412 1169 1.520 10000.000 0.000 0.143
22 66.00 1500.00 344 1133 1.520 10000.000 0.000 0.143
23 69.00 1500.00 345 1072 1.520 10000.000 0.000 0.143
24 72.00 1500.00 398 1111 1.520 10000.000 0.000 0.143
25 75.00 1500.00 339 1154 1.520 10000.000 0.000 0.143
26 78.00 1500.00 349 1152 1.520 10000.000 0.000 0.143
27 81.00 1500.00 352 1129 1.520 10000.000 0.000 0.143
28 84.00 1500.00 374 1158 1.520 10000.000 0.000 0.143
29 87.00 1500.00 381 1130 1.520 10000.000 0.000 0.143
30 90.00 1500.00 333 1115 1.520 10000.000 0.000 0.143
31 93.00 1500.00 376 1149 1.520 10000.000 0.000 0.143
32 96.00 1500.00 368 1141 1.520 10000.000 0.000 0.143
33 99.00 1500.00 355 1131 1.520 10000.000 0.000 0.143
34 102.00 1500.00 348 1141 1.520 10000.000 0.000 0.143
35 105.00 1500.00 356 1132 1.520 10000.000 0.000 0.143
36 108.00 1500.00 367 1142 1.520 10000.000 0.000 0.143
37 111.00 1500.00 379 1098 1.520 10000.000 0.000 0.143
38 114.00 1500.00 381 1182 1.520 10000.000 0.000 0.143
39 117.00 1500.00 331 1119 1.520 10000.000 0.000 0.143
40 120.00 1500.00 349 1118 1.520 10000.000 0.000 0.143
41 123.00 1500.00 366 1114 1.520 10000.000 0.000 0.143
42 126.00 1500.00 365 1148 1.520 10000.000 0.000 0.143
43 129.00 1500.00 382 1131 1.520 10000.000 0.000 0.143
44 132.00 1500.00 343 1127 1.520 10000.000 0.000 0.143
45 135.00 1500.00 366 1181 1.520 10000.000 0.000 0.143
46 138.00 1500.00 344 1175 1.520 10000.000 0.000 0.143
47 141.00 1500.00 347 1053 1.520 10000.000 0.000 0.143
48 144.00 1500.00 358 1141 1.520 10000.000 0.000 0.143
49 147.00 1500.00 344 1097 1.520 10000.000 0.000 0.143
50 150.00 1500.00 361 1094 1.520 10000.000 0.000 0.143
51 153.00 1500.00 348 1130 1.520 10000.000 0.000 0.143
52 156.00 1500.00 381 1125 1.520 10000.000 0.000 0.143
53 159.00 1500.00 359 1143 1.520 10000.000 0.000 0.143
54 162.00 1500.00 364 1123 1.520 10000.000 0.000 0.143
55 165.00 1500.00 339 1134 1.520 10000.000 0.000 0.143
56 168.00 1500.00 355 1140 1.520 10000.000 0.000 0.143
57 171.00 1500.00 343 1144 1.520 10000.000 0.000 0.143
58 174.00 1500.00 372 1091 1.520 10000.000 0.000 0.143
59 177.00 1500.00 352 1139 1.520 10000.000 0.000 0.143
60 180.00 1500.00 371 1196 1.520 10000.000 0.000 0.143
61 183.00 1500.00 342 1095 1.520 10000.000 0.000 0.143
62 186.00 1500.00 377 1196 1.520 10000.000 0.000 0.143
63 189.00 1500.00 386 1167 1.520 10000.000 0.000 0.143
64 192.00 1500.00 374 1174 1.520 10000.000 0.000 0.143
65 195.00 1500.00 364 1125 1.520 10000.000 0.000 0.143
66 198.00 1500.00 377 1167 1.520 10000.000 0.000 0.143
67 201.00 1500.00 395 1135 1.520 10000.000 0.000 0.143
68 204.00 1500.00 366 1102 1.520 10000.000 0.000 0.143
69 207.00 1500.00 347 1159 1.520 10000.000 0.000 0.143
70 210.00 1500.00 392 1142 1.520 10000.000 0.000 0.143
71 213.00 1500.00 377 1188 1.520 10000.000 0.000 0.143
72 216.00 1500.00 348 1183 1.520 10000.000 0.000 0.143
73 219.00 1500.00 366 1159 1.520 10000.000 0.000 0.143
74 222.00 1500.00 337 1192 1.520 10000.000 0.000 0.143
75 225.00 1500.00 364 1135 1.520 10000.000 0.000 0.143
76 228.00 1500.00 374 1081 1.520 10000.000 0.000 0.143
77 231.00 1500.00 338 1077 1.520 10000.000 0.000 0.143
78 234.00 1500.00 363 1145 1.520 10000.000 0.000 0.143
79 237.00 1500.00 330 1061 1.520 10000.000 0.000 0.143
80 240.00 1500.00 348 1133 1.520 10000.000 0.000 0.143
81 243.00 1500.00 354 1129 1.520 10000.000 0.000 0.143
82 246.00 1500.00 381 1179 1.520 10000.000 0.000 0.143
83 249.00 1500.00 369 1129 1.520 10000.000 0.000 0.143
84 252.00 1500.00 369 1160 1.520 10000.000 0.000 0.143
85 255.00 1500.00 350 1061 1.520 10000.000 0.000 0.143
86 258.00 1500.00 378 1257 1.520 10000.000 0.000 0.143
87 261.00 1500.00 360 1177 1.520 10000.000 0.000 0.143
88 264.00 1500.00 352 1096 1.520 10000.000 0.000 0.143
89 267.00 1500.00 327 1119 1.520 10000.000 0.000 0.143
90 270.00 1500.00 388 1056 1.520 10000.000 0.000 0.143
91 273.00 1500.00 336 1163 1.520 10000.000 0.000 0.143
92 276.00 1500.00 361 1069 1.520 10000.000 0.000 0.143
93 279.00 1500.00 353 1124 1.520 10000.000 0.000 0.143
94 282.00 1500.00 391 1156 1.520 10000.000 0.000 0.143
95 285.00 1500.00 352 1119 1.520 10000.000 0.000 0.143
96 288.00 1500.00 378 1165 1.520 10000.000 0.000 0.143
97 291.00 1500.00 354 1119 1.520 10000.000 0.000 0.143
98 294.00 1500.00 375 1170 1.520 10000.000 0.000 0.143
99 297.00 1500.00 360 1083 1.520 10000.000 0.000 0.143
100 300.00 1500.00 331 1155 1.520 10000.000 0.000 0.143
101 303.00 1500.00 385 1140 1.520 10000.000 0.000 0.143
102 306.00 1500.00 375 1133 1.520 10000.000 0.000 0.143
103 309.00 1500.00 364 1069 1.520 10000.000 0.000 0.143
104 312.00 1500.00 350 1085 1.520 10000.000 0.000 0.143
105 315.00 1500.00 375 1157 1.520 10000.000 0.000 0.143
106 318.00 1500.00 379 1181 1.520 10000.000 0.000 0.143
107 321.00 1500.00 368 1100 1.520 10000.000 0.000 0.143
108 324.00 1500.00 363 1152 1.520 10000.000 0.000 0.143
109 327.00 1500.00 372 1101 1.520 10000.000 0.000 0.143
110 330.00 1500.00 347 1114 1.520 10000.000 0.000 0.143
111 333.00 1500.00 387 1174 1.520 10000.000 0.000 0.143
112 336.00 1500.00 367 1164 1.520 10000.000 0.000 0.143
113 339.00 1500.00 369 1187 1.520 10000.000 0.000 0.143
114 342.00 1500.00 395 1054 1.520 10000.000 0.000 0.143
115 345.00 1500.00 334 1131 1.520 10000.000 0.000 0.143
116 348.00 1500.00 355 1222 1.520 10000.000 0.000 0.143
117 351.00 1500.00 326 1194 1.520 10000.000 0.000 0.143
118 354.00 1500.00 364 1144 1.520 10000.000 0.000 0.143
119 357.00 1500.00 352 1086 1.520 10000.000 0.000 0.143
120 360.00 1500.00 384 1138 1.520 10000.000 0.000 0.143
121 363.00 1500.00 369 1061 1.520 10000.000 0.000 0.143
122 366.00 1500.00 367 1189 1.520 10000.000 0.000 0.143
123 369.00 1500.00 371 1133 1.520 10000.000 0.000 0.143
124 372.00 1500.00 361 1181 1.520 10000.000 0.000 0.143
125 375.00 1500.00 381 1144 1.520 10000.000 0.000 0.143
126 378.00 1500.00 377 1138 1.520 10000.000 0.000 0.143
127 381.00 1500.00 346 1177 1.520 10000.000 0.000 0.143
128 384.00 1500.00 407 1142 1.520 10000.000 0.000 0.143
129 387.00 1500.00 320 1205 1.520 10000.000 0.000 0.143
130 390.00 1500.00 380 1133 1.520 10000.000 0.000 0.143
131 393.00 1500.00 383 1099 1.520 10000.000 0.000 0.143
132 396.00 1500.00 367 1162 1.520 10000.000 0.000 0.143
133 399.00 1500.00 372 1122 1.520 10000.000 0.000 0.143
134 402.00 1500.00 375 1138 1.520 10000.000 0.000 0.143
135 405.00 1500.00 360 1204 1.520 10000.000 0.000 0.143
136 408.00 1500.00 363 1150 1.520 10000.000 0.000 0.143
137 411.00 1500.00 363 1109 1.520 10000.000 0.000 0.143
138 414.00 1500.00 343 1156 1.520 10000.000 0.000 0.143
139 417.00 1500.00 340 1133 1.520 10000.000 0.000 0.143
140 420.00 1500.00 392 1112 1.520 10000.000 0.000 0.143
141 423.00 1500.00 349 1141 1.520 10000.000 0.000 0.143
142 426.00 1500.00 363 1243 1.520 10000.000 0.000 0.143
143 429.00 1500.00 385 1109 1.520 10000.000 0.000 0.143
144 432.00 1500.00 360 1115 1.520 10000.000 0.000 0.143
