# BinNR microsec tot-time (s)  O-Beam AUX Ampl(V) f(Hz) phase(deg) chi(pos)
0 0.00 1500.01 154 471 1.520 10000.000 0.000 -1.516
1 3.00 1500.01 314 887 1.520 10000.000 0.000 -1.516
2 6.00 1500.01 318 926 1.520 10000.000 0.000 -1.516
3 9.00 1500.01 346 894 1.520 10000.000 0.000 -1.516
4 12.00 1500.01 339 923 1.520 10000.000 0.000 -1.516
5 15.00 1500.01 315 902 1.520 10000.000 0.000 -1.516
6 18.00 1500.01 360 881 1.520 10000.000 0.000 -1.516
7 21.00 1500.01 350 936 1.520 10000.000 0.000 -1.516
8 24.00 1500.01 326 900 1.520 10000.000 0.000 -1.516
9 27.00 1500.01 335 921 1.520 10000.000 0.000 -1.516
10 30.00 1500.01 326 951 1.520 10000.000 0.000 -1.516
11 33.00 1500.01 301 897 1.520 10000.000 0.000 -1.516
12 36.00 1500.01 322 894 1.520 10000.000 0.000 -1.516
13 39.00 1500.01 310 875 1.520 10000.000 0.000 -1.516
14 42.00 1500.01 348 860 1.520 10000.000 0.000 -1.516
15 45.00 1500.01 350 855 1.520 10000.000 0.000 -1.516
16 48.00 1500.01 371 905 1.520 10000.000 0.000 -1.516
17 51.00 1500.01 317 857 1.520 10000.000 0.000 -1.516
18 54.00 1500.01 338 889 1.520 10000.000 0.000 -1.516
19 57.00 1500.01 339 964 1.520 10000.000 0.000 -1.516
20 60.00 1500.01 320 861 1.520 10000.000 0.000 -1.516
21 63.00 1500.01 299 847 1.520 10000.000 0.000 -1.516
22 66.00 1500.01 336 923 1.520 10000.000 0.000 -1.516
23 69.00 1500.01 347 911 1.520 10000.000 0.000 -1.516
24 72.00 1500.01 313 928 1.520 10000.000 0.000 -1.516
25 75.00 1500.01 319 883 1.520 10000.000 0.000 -1.516
26 78.00 1500.01 359 925 1.520 10000.000 0.000 -1.516
27 81.00 1500.01 315 863 1.520 10000.000 0.000 -1.516
28 84.00 1500.01 345 903 1.520 10000.000 0.000 -1.516
29 87.00 1500.01 339 835 1.520 10000.000 0.000 -1.516
30 90.00 1500.01 293 801 1.520 10000.000 0.000 -1.516
31 93.00 1500.01 318 870 1.520 10000.000 0.000 -1.516
32 96.00 1500.01 327 886 1.520 10000.000 0.000 -1.516
33 99.00 1500.01 318 877 1.520 10000.000 0.000 -1.516
34 102.00 1500.01 316 938 1.520 10000.000 0.000 -1.516
35 105.00 1500.01 325 889 1.520 10000.000 0.000 -1.516
36 108.00 1500.01 288 940 1.520 10000.000 0.000 -1.516
37 111.00 1500.01 295 914 1.520 10000.000 0.000 -1.516
38 114.00 1500.01 328 883 1.520 10000.000 0.000 -1.516
39 117.00 1500.01 327 915 1.520 10000.000 0.000 -1.516
40 120.00 1500.01 332 919 1.520 10000.000 0.000 -1.516
41 123.00 1500.01 308 932 1.520 10000.000 0.000 -1.516
42 126.00 1500.01 322 904 1.520 10000.000 0.000 -1.516
43 129.00 1500.01 315 905 1.520 10000.000 0.000 -1.516
44 132.00 1500.01 347 923 1.520 10000.000 0.000 -1.516
45 135.00 1500.01 310 861 1.520 10000.000 0.000 -1.516
46 138.00 1500.01 330 917 1.520 10000.000 0.000 -1.516
47 141.00 1500.01 298 918 1.520 10000.000 0.000 -1.516
48 144.00 1500.01 332 882 1.520 10000.000 0.000 -1.516
49 147.00 1500.01 347 850 1.520 10000.000 0.000 -1.516
50 150.00 1500.01 343 908 1.520 10000.000 0.000 -1.516
51 153.00 1500.01 338 857 1.520 10000.000 0.000 -1.516
52 156.00 1500.01 350 954 1.520 10000.000 0.000 -1.516
53 159.00 1500.01 324 900 1.520 10000.000 0.000 -1.516
54 162.00 1500.01 325 919 1.520 10000.000 0.000 -1.516
55 165.00 1500.01 354 925 1.520 10000.000 0.000 -1.516
56 168.00 1500.01 296 899 1.520 10000.000 0.000 -1.516
57 171.00 1500.01 339 884 1.520 10000.000 0.000 -1.516
58 174.00 1500.01 311 880 1.520 10000.000 0.000 -1.516
59 177.00 1500.01 313 861 1.520 10000.000 0.000 -1.516
60 180.00 1500.01 309 899 1.520 10000.000 0.000 -1.516
61 183.00 1500.01 291 944 1.520 10000.000 0.000 -1.516
62 186.00 1500.01 340 934 1.520 10000.000 0.000 -1.516
63 189.00 1500.01 320 917 1.520 10000.000 0.000 -1.516
64 192.00 1500.01 316 897 1.520 10000.000 0.000 -1.516
65 195.00 1500.01 299 859 1.520 10000.000 0.000 -1.516
66 198.00 1500.01 331 887 1.520 10000.000 0.000 -1.516
67 201.00 1500.01 306 861 1.520 10000.000 0.000 -1.516
68 204.00 1500.01 350 925 1.520 10000.000 0.000 -1.516
69 207.00 1500.01 327 916 1.520 10000.000 0.000 -1.516
70 210.00 1500.01 355 925 1.520 10000.000 0.000 -1.516
71 213.00 1500.01 319 870 1.520 10000.000 0.000 -1.516
72 216.00 1500.01 351 878 1.520 10000.000 0.000 -1.516
73 219.00 1500.01 309 871 1.520 10000.000 0.000 -1.516
74 222.00 1500.01 334 860 1.520 10000.000 0.000 -1.516
75 225.00 1500.01 342 885 1.520 10000.000 0.000 -1.516
76 228.00 1500.01 335 883 1.520 10000.000 0.000 -1.516
77 231.00 1500.01 333 920 1.520 10000.000 0.000 -1.516
78 234.00 1500.01 314 846 1.520 10000.000 0.000 -1.516
79 237.00 1500.01 334 910 1.520 10000.000 0.000 -1.516
80 240.00 1500.01 367 905 1.520 10000.000 0.000 -1.516
81 243.00 1500.01 304 900 1.520 10000.000 0.000 -1.516
82 246.00 1500.01 347 847 1.520 10000.000 0.000 -1.516
83 249.00 1500.01 316 877 1.520 10000.000 0.000 -1.516
84 252.00 1500.01 320 928 1.520 10000.000 0.000 -1.516
85 255.00 1500.01 330 904 1.520 10000.000 0.000 -1.516
86 258.00 1500.01 338 932 1.520 10000.000 0.000 -1.516
87 261.00 1500.01 329 936 1.520 10000.000 0.000 -1.516
88 264.00 1500.01 319 878 1.520 10000.000 0.000 -1.516
89 267.00 1500.01 338 894 1.520 10000.000 0.000 -1.516
90 270.00 1500.01 339 865 1.520 10000.000 0.000 -1.516
91 273.00 1500.01 330 869 1.520 10000.000 0.000 -1.516
92 276.00 1500.01 329 873 1.520 10000.000 0.000 -1.516
93 279.00 1500.01 320 930 1.520 10000.000 0.000 -1.516
94 282.00 1500.01 334 917 1.520 10000.000 0.000 -1.516
95 285.00 1500.01 285 916 1.520 10000.000 0.000 -1.516
96 288.00 1500.01 306 969 1.520 10000.000 0.000 -1.516
97 291.00 1500.01 332 921 1.520 10000.000 0.000 -1.516
98 294.00 1500.01 347 871 1.520 10000.000 0.000 -1.516
99 297.00 1500.01 293 894 1.520 10000.000 0.000 -1.516
100 300.00 1500.01 325 931 1.520 10000.000 0.000 -1.516
101 303.00 1500.01 313 895 1.520 10000.000 0.000 -1.516
102 306.00 1500.01 327 919 1.520 10000.000 0.000 -1.516
103 309.00 1500.01 346 813 1.520 10000.000 0.000 -1.516
104 312.00 1500.01 331 922 1.520 10000.000 0.000 -1.516
105 315.00 1500.01 334 908 1.520 10000.000 0.000 -1.516
106 318.00 1500.01 329 945 1.520 10000.000 0.000 -1.516
107 321.00 1500.01 319 941 1.520 10000.000 0.000 -1.516
108 324.00 1500.01 351 913 1.520 10000.000 0.000 -1.516
109 327.00 1500.01 328 906 1.520 10000.000 0.000 -1.516
110 330.00 1500.01 353 926 1.520 10000.000 0.000 -1.516
111 333.00 1500.01 334 877 1.520 10000.000 0.000 -1.516
112 336.00 1500.01 306 925 1.520 10000.000 0.000 -1.516
113 339.00 1500.01 312 910 1.520 10000.000 0.000 -1.516
114 342.00 1500.01 312 892 1.520 10000.000 0.000 -1.516
115 345.00 1500.01 304 952 1.520 10000.000 0.000 -1.516
116 348.00 1500.01 320 823 1.520 10000.000 0.000 -1.516
117 351.00 1500.01 310 880 1.520 10000.000 0.000 -1.516
118 354.00 1500.01 345 898 1.520 10000.000 0.000 -1.516
119 357.00 1500.01 343 895 1.520 10000.000 0.000 -1.516
120 360.00 1500.01 326 931 1.520 10000.000 0.000 -1.516
121 363.00 1500.01 325 899 1.520 10000.000 0.000 -1.516
122 366.00 1500.01 313 921 1.520 10000.000 0.000 -1.516
123 369.00 1500.01 306 840 1.520 10000.000 0.000 -1.516
124 372.00 1500.01 301 871 1.520 10000.000 0.000 -1.516
125 375.00 1500.01 294 879 1.520 10000.000 0.000 -1.516
126 378.00 1500.01 327 949 1.520 10000.000 0.000 -1.516
127 381.00 1500.01 305 872 1.520 10000.000 0.000 -1.516
128 384.00 1500.01 316 893 1.520 10000.000 0.000 -1.516
129 387.00 1500.01 307 892 1.520 10000.000 0.000 -1.516
130 390.00 1500.01 296 857 1.520 10000.000 0.000 -1.516
131 393.00 1500.01 319 898 1.520 10000.000 0.000 -1.516
132 396.00 1500.01 324 874 1.520 10000.000 0.000 -1.516
133 399.00 1500.01 339 911 1.520 10000.000 0.000 -1.516
134 402.00 1500.01 347 842 1.520 10000.000 0.000 -1.516
135 405.00 1500.01 322 924 1.520 10000.000 0.000 -1.516
136 408.00 1500.01 305 925 1.520 10000.000 0.000 -1.516
137 411.00 1500.01 294 870 1.520 10000.000 0.000 -1.516
138 414.00 1500.01 338 879 1.520 10000.000 0.000 -1.516
139 417.00 1500.01 327 940 1.520 10000.000 0.000 -1.516
140 420.00 1500.01 309 872 1.520 10000.000 0.000 -1.516
141 423.00 1500.01 325 888 1.520 10000.000 0.000 -1.516
142 426.00 1500.01 324 929 1.520 10000.000 0.000 -1.516
143 429.00 1500.01 348 843 1.520 10000.000 0.000 -1.516
144 432.00 1500.01 350 938 1.520 10000.000 0.000 -1.516
