# BinNR microsec tot-time (s)  O-Beam AUX Ampl(V) f(Hz) phase(deg) chi(pos)
0 0.00 1500.00 75 114 1.520 10000.000 0.000 1.329
1 3.00 1500.00 154 222 1.520 10000.000 0.000 1.329
2 6.00 1500.00 143 226 1.520 10000.000 0.000 1.329
3 9.00 1500.00 152 252 1.520 10000.000 0.000 1.329
4 12.00 1500.00 133 240 1.520 10000.000 0.000 1.329
5 15.00 1500.00 137 216 1.520 10000.000 0.000 1.329
6 18.00 1500.00 149 210 1.520 10000.000 0.000 1.329
7 21.00 1500.00 139 210 1.520 10000.000 0.000 1.329
8 24.00 1500.00 164 220 1.520 10000.000 0.000 1.329
9 27.00 1500.00 121 222 1.520 10000.000 0.000 1.329
10 30.00 1500.00 151 210 1.520 10000.000 0.000 1.329
11 33.00 1500.00 149 216 1.520 10000.000 0.000 1.329
12 36.00 1500.00 162 203 1.520 10000.000 0.000 1.329
13 39.00 1500.00 168 204 1.520 10000.000 0.000 1.329
14 42.00 1500.00 153 237 1.520 10000.000 0.000 1.329
15 45.00 1500.00 135 227 1.520 10000.000 0.000 1.329
16 48.00 1500.00 154 245 1.520 10000.000 0.000 1.329
17 51.00 1500.00 147 223 1.520 10000.000 0.000 1.329
18 54.00 1500.00 155 229 1.520 10000.000 0.000 1.329
19 57.00 1500.00 133 261 1.520 10000.000 0.000 1.329
20 60.00 1500.00 144 228 1.520 10000.000 0.000 1.329
21 63.00 1500.00 146 221 1.520 10000.000 0.000 1.329
22 66.00 1500.00 158 209 1.520 10000.000 0.000 1.329
23 69.00 1500.00 160 237 1.520 10000.000 0.000 1.329
24 72.00 1500.00 143 245 1.520 10000.000 0.000 1.329
25 75.00 1500.00 166 220 1.520 10000.000 0.000 1.329
26 78.00 1500.00 148 227 1.520 10000.000 0.000 1.329
27 81.00 1500.00 131 242 1.520 10000.000 0.000 1.329
28 84.00 1500.00 152 212 1.520 10000.000 0.000 1.329
29 87.00 1500.00 149 238 1.520 10000.000 0.000 1.329
30 90.00 1500.00 145 219 1.520 10000.000 0.000 1.329
31 93.00 1500.00 138 230 1.520 10000.000 0.000 1.329
32 96.00 1500.00 133 233 1.520 10000.000 0.000 1.329
33 99.00 1500.00 161 215 1.520 10000.000 0.000 1.329
34 102.00 1500.00 151 235 1.520 10000.000 0.000 1.329
35 105.00 1500.00 147 243 1.520 10000.000 0.000 1.329
36 108.00 1500.00 130 231 1.520 10000.000 0.000 1.329
37 111.00 1500.00 156 203 1.520 10000.000 0.000 1.329
38 114.00 1500.00 156 232 1.520 10000.000 0.000 1.329
39 117.00 1500.00 145 253 1.520 10000.000 0.000 1.329
40 120.00 1500.00 157 246 1.520 10000.000 0.000 1.329
41 123.00 1500.00 146 214 1.520 10000.000 0.000 1.329
42 126.00 1500.00 154 214 1.520 10000.000 0.000 1.329
43 129.00 1500.00 173 226 1.520 10000.000 0.000 1.329
44 132.00 1500.00 152 217 1.520 10000.000 0.000 1.329
45 135.00 1500.00 154 223 1.520 10000.000 0.000 1.329
46 138.00 1500.00 150 215 1.520 10000.000 0.000 1.329
47 141.00 1500.00 154 213 1.520 10000.000 0.000 1.329
48 144.00 1500.00 149 251 1.520 10000.000 0.000 1.329
49 147.00 1500.00 157 222 1.520 10000.000 0.000 1.329
50 150.00 1500.00 142 207 1.520 10000.000 0.000 1.329
51 153.00 1500.00 136 214 1.520 10000.000 0.000 1.329
52 156.00 1500.00 149 229 1.520 10000.000 0.000 1.329
53 159.00 1500.00 150 207 1.520 10000.000 0.000 1.329
54 162.00 1500.00 143 251 1.520 10000.000 0.000 1.329
55 165.00 1500.00 137 227 1.520 10000.000 0.000 1.329
56 168.00 1500.00 184 235 1.520 10000.000 0.000 1.329
57 171.00 1500.00 163 226 1.520 10000.000 0.000 1.329
58 174.00 1500.00 122 222 1.520 10000.000 0.000 1.329
59 177.00 1500.00 131 214 1.520 10000.000 0.000 1.329
60 180.00 1500.00 150 217 1.520 10000.000 0.000 1.329
61 183.00 1500.00 153 224 1.520 10000.000 0.000 1.329
62 186.00 1500.00 148 235 1.520 10000.000 0.000 1.329
63 189.00 1500.00 142 238 1.520 10000.000 0.000 1.329
64 192.00 1500.00 143 231 1.520 10000.000 0.000 1.329
65 195.00 1500.00 129 208 1.520 10000.000 0.000 1.329
66 198.00 1500.00 138 231 1.520 10000.000 0.000 1.329
67 201.00 1500.00 147 219 1.520 10000.000 0.000 1.329
68 204.00 1500.00 161 246 1.520 10000.000 0.000 1.329
69 207.00 1500.00 151 214 1.520 10000.000 0.000 1.329
70 210.00 1500.00 146 227 1.520 10000.000 0.000 1.329
71 213.00 1500.00 132 215 1.520 10000.000 0.000 1.329
72 216.00 1500.00 150 223 1.520 10000.000 0.000 1.329
73 219.00 1500.00 134 243 1.520 10000.000 0.000 1.329
74 222.00 1500.00 131 233 1.520 10000.000 0.000 1.329
75 225.00 1500.00 152 222 1.520 10000.000 0.000 1.329
76 228.00 1500.00 141 247 1.520 10000.000 0.000 1.329
77 231.00 1500.00 154 211 1.520 10000.000 0.000 1.329
78 234.00 1500.00 159 230 1.520 10000.000 0.000 1.329
79 237.00 1500.00 152 228 1.520 10000.000 0.000 1.329
80 240.00 1500.00 151 223 1.520 10000.000 0.000 1.329
81 243.00 1500.00 148 243 1.520 10000.000 0.000 1.329
82 246.00 1500.00 149 212 1.520 10000.000 0.000 1.329
83 249.00 1500.00 154 242 1.520 10000.000 0.000 1.329
84 252.00 1500.00 118 208 1.520 10000.000 0.000 1.329
85 255.00 1500.00 166 222 1.520 10000.000 0.000 1.329
86 258.00 1500.00 157 193 1.520 10000.000 0.000 1.329
87 261.00 1500.00 145 224 1.520 10000.000 0.000 1.329
88 264.00 1500.00 146 220 1.520 10000.000 0.000 1.329
89 267.00 1500.00 126 225 1.520 10000.000 0.000 1.329
90 270.00 1500.00 151 247 1.520 10000.000 0.000 1.329
91 273.00 1500.00 138 244 1.520 10000.000 0.000 1.329
92 276.00 1500.00 151 228 1.520 10000.000 0.000 1.329
93 279.00 1500.00 140 247 1.520 10000.000 0.000 1.329
94 282.00 1500.00 151 244 1.520 10000.000 0.000 1.329
95 285.00 1500.00 145 234 1.520 10000.000 0.000 1.329
96 288.00 1500.00 173 234 1.520 10000.000 0.000 1.329
97 291.00 1500.00 157 209 1.520 10000.000 0.000 1.329
98 294.00 1500.00 146 219 1.520 10000.000 0.000 1.329
99 297.00 1500.00 128 221 1.520 10000.000 0.000 1.329
100 300.00 1500.00 141 258 1.520 10000.000 0.000 1.329
101 303.00 1500.00 133 207 1.520 10000.000 0.000 1.329
102 306.00 1500.00 159 206 1.520 10000.000 0.000 1.329
103 309.00 1500.00 151 215 1.520 10000.000 0.000 1.329
104 312.00 1500.00 152 212 1.520 10000.000 0.000 1.329
105 315.00 1500.00 128 228 1.520 10000.000 0.000 1.329
106 318.00 1500.00 160 256 1.520 10000.000 0.000 1.329
107 321.00 1500.00 145 226 1.520 10000.000 0.000 1.329
108 324.00 1500.00 152 216 1.520 10000.000 0.000 1.329
109 327.00 1500.00 160 242 1.520 10000.000 0.000 1.329
110 330.00 1500.00 147 234 1.520 10000.000 0.000 1.329
111 333.00 1500.00 151 198 1.520 10000.000 0.000 1.329
112 336.00 1500.00 156 204 1.520 10000.000 0.000 1.329
113 339.00 1500.00 146 212 1.520 10000.000 0.000 1.329
114 342.00 1500.00 168 224 1.520 10000.000 0.000 1.329
115 345.00 1500.00 145 230 1.520 10000.000 0.000 1.329
116 348.00 1500.00 149 218 1.520 10000.000 0.000 1.329
117 351.00 1500.00 160 233 1.520 10000.000 0.000 1.329
118 354.00 1500.00 157 224 1.520 10000.000 0.000 1.329
119 357.00 1500.00 160 243 1.520 10000.000 0.000 1.329
120 360.00 1500.00 138 219 1.520 10000.000 0.000 1.329
121 363.00 1500.00 158 223 1.520 10000.000 0.000 1.329
122 366.00 1500.00 149 243 1.520 10000.000 0.000 1.329
123 369.00 1500.00 146 219 1.520 10000.000 0.000 1.329
124 372.00 1500.00 172 223 1.520 10000.000 0.000 1.329
125 375.00 1500.00 129 211 1.520 10000.000 0.000 1.329
126 378.00 1500.00 149 234 1.520 10000.000 0.000 1.329
127 381.00 1500.00 123 224 1.520 10000.000 0.000 1.329
128 384.00 1500.00 141 231 1.520 10000.000 0.000 1.329
129 387.00 1500.00 144 215 1.520 10000.000 0.000 1.329
130 390.00 1500.00 156 199 1.520 10000.000 0.000 1.329
131 393.00 1500.00 141 215 1.520 10000.000 0.000 1.329
132 396.00 1500.00 129 224 1.520 10000.000 0.000 1.329
133 399.00 1500.00 146 254 1.520 10000.000 0.000 1.329
134 402.00 1500.00 136 239 1.520 10000.000 0.000 1.329
135 405.00 1500.00 137 247 1.520 10000.000 0.000 1.329
136 408.00 1500.00 147 220 1.520 10000.000 0.000 1.329
137 411.00 1500.00 130 213 1.520 10000.000 0.000 1.329
138 414.00 1500.00 144 230 1.520 10000.000 0.000 1.329
139 417.00 1500.00 140 227 1.520 10000.000 0.000 1.329
140 420.00 1500.00 160 223 1.520 10000.000 0.000 1.329
141 423.00 1500.00 152 212 1.520 10000.000 0.000 1.329
142 426.00 1500.00 156 221 1.520 10000.000 0.000 1.329
143 429.00 1500.00 150 221 1.520 10000.000 0.000 1.329
144 432.00 1500.00 168 229 1.520 10000.000 0.000 1.329
