# BinNR microsec tot-time (s)  O-Beam AUX Ampl(V) f(Hz) phase(deg) chi(pos)
0 0.00 1200.00 21 65 2.000 10000.000 0.000 0.901
1 3.00 1200.00 46 145 2.000 10000.000 0.000 0.901
2 6.00 1200.00 56 136 2.000 10000.000 0.000 0.901
3 9.00 1200.00 54 146 2.000 10000.000 0.000 0.901
4 12.00 1200.00 53 124 2.000 10000.000 0.000 0.901
5 15.00 1200.00 53 138 2.000 10000.000 0.000 0.901
6 18.00 1200.00 60 148 2.000 10000.000 0.000 0.901
7 21.00 1200.00 47 132 2.000 10000.000 0.000 0.901
8 24.00 1200.00 68 168 2.000 10000.000 0.000 0.901
9 27.00 1200.00 50 136 2.000 10000.000 0.000 0.901
10 30.00 1200.00 55 156 2.000 10000.000 0.000 0.901
11 33.00 1200.00 45 149 2.000 10000.000 0.000 0.901
12 36.00 1200.00 49 150 2.000 10000.000 0.000 0.901
13 39.00 1200.00 62 128 2.000 10000.000 0.000 0.901
14 42.00 1200.00 68 146 2.000 10000.000 0.000 0.901
15 45.00 1200.00 42 134 2.000 10000.000 0.000 0.901
16 48.00 1200.00 54 132 2.000 10000.000 0.000 0.901
17 51.00 1200.00 58 137 2.000 10000.000 0.000 0.901
18 54.00 1200.00 49 136 2.000 10000.000 0.000 0.901
19 57.00 1200.00 55 138 2.000 10000.000 0.000 0.901
20 60.00 1200.00 51 141 2.000 10000.000 0.000 0.901
21 63.00 1200.00 63 138 2.000 10000.000 0.000 0.901
22 66.00 1200.00 61 151 2.000 10000.000 0.000 0.901
23 69.00 1200.00 47 147 2.000 10000.000 0.000 0.901
24 72.00 1200.00 46 151 2.000 10000.000 0.000 0.901
25 75.00 1200.00 60 134 2.000 10000.000 0.000 0.901
26 78.00 1200.00 51 163 2.000 10000.000 0.000 0.901
27 81.00 1200.00 62 119 2.000 10000.000 0.000 0.901
28 84.00 1200.00 51 151 2.000 10000.000 0.000 0.901
29 87.00 1200.00 44 139 2.000 10000.000 0.000 0.901
30 90.00 1200.00 60 144 2.000 10000.000 0.000 0.901
31 93.00 1200.00 51 175 2.000 10000.000 0.000 0.901
32 96.00 1200.00 50 118 2.000 10000.000 0.000 0.901
33 99.00 1200.00 43 131 2.000 10000.000 0.000 0.901
34 102.00 1200.00 39 144 2.000 10000.000 0.000 0.901
35 105.00 1200.00 56 121 2.000 10000.000 0.000 0.901
36 108.00 1200.00 54 153 2.000 10000.000 0.000 0.901
37 111.00 1200.00 52 130 2.000 10000.000 0.000 0.901
38 114.00 1200.00 61 135 2.000 10000.000 0.000 0.901
39 117.00 1200.00 43 136 2.000 10000.000 0.000 0.901
40 120.00 1200.00 53 153 2.000 10000.000 0.000 0.901
41 123.00 1200.00 48 156 2.000 10000.000 0.000 0.901
42 126.00 1200.00 57 138 2.000 10000.000 0.000 0.901
43 129.00 1200.00 57 129 2.000 10000.000 0.000 0.901
44 132.00 1200.00 51 117 2.000 10000.000 0.000 0.901
45 135.00 1200.00 61 148 2.000 10000.000 0.000 0.901
46 138.00 1200.00 43 142 2.000 10000.000 0.000 0.901
47 141.00 1200.00 55 135 2.000 10000.000 0.000 0.901
48 144.00 1200.00 45 141 2.000 10000.000 0.000 0.901
49 147.00 1200.00 55 119 2.000 10000.000 0.000 0.901
50 150.00 1200.00 60 127 2.000 10000.000 0.000 0.901
51 153.00 1200.00 56 151 2.000 10000.000 0.000 0.901
52 156.00 1200.00 49 148 2.000 10000.000 0.000 0.901
53 159.00 1200.00 48 147 2.000 10000.000 0.000 0.901
54 162.00 1200.00 45 123 2.000 10000.000 0.000 0.901
55 165.00 1200.00 38 146 2.000 10000.000 0.000 0.901
56 168.00 1200.00 56 150 2.000 10000.000 0.000 0.901
57 171.00 1200.00 50 150 2.000 10000.000 0.000 0.901
58 174.00 1200.00 41 148 2.000 10000.000 0.000 0.901
59 177.00 1200.00 55 143 2.000 10000.000 0.000 0.901
60 180.00 1200.00 52 133 2.000 10000.000 0.000 0.901
61 183.00 1200.00 57 141 2.000 10000.000 0.000 0.901
62 186.00 1200.00 40 147 2.000 10000.000 0.000 0.901
63 189.00 1200.00 55 145 2.000 10000.000 0.000 0.901
64 192.00 1200.00 50 158 2.000 10000.000 0.000 0.901
65 195.00 1200.00 57 124 2.000 10000.000 0.000 0.901
66 198.00 1200.00 50 135 2.000 10000.000 0.000 0.901
67 201.00 1200.00 60 152 2.000 10000.000 0.000 0.901
68 204.00 1200.00 52 147 2.000 10000.000 0.000 0.901
69 207.00 1200.00 62 132 2.000 10000.000 0.000 0.901
70 210.00 1200.00 46 134 2.000 10000.000 0.000 0.901
71 213.00 1200.00 60 143 2.000 10000.000 0.000 0.901
72 216.00 1200.00 39 148 2.000 10000.000 0.000 0.901
73 219.00 1200.00 48 119 2.000 10000.000 0.000 0.901
74 222.00 1200.00 59 156 2.000 10000.000 0.000 0.901
75 225.00 1200.00 48 128 2.000 10000.000 0.000 0.901
76 228.00 1200.00 60 145 2.000 10000.000 0.000 0.901
77 231.00 1200.00 49 150 2.000 10000.000 0.000 0.901
78 234.00 1200.00 44 113 2.000 10000.000 0.000 0.901
79 237.00 1200.00 49 156 2.000 10000.000 0.000 0.901
80 240.00 1200.00 56 158 2.000 10000.000 0.000 0.901
81 243.00 1200.00 43 128 2.000 10000.000 0.000 0.901
82 246.00 1200.00 59 146 2.000 10000.000 0.000 0.901
83 249.00 1200.00 60 137 2.000 10000.000 0.000 0.901
84 252.00 1200.00 64 128 2.000 10000.000 0.000 0.901
85 255.00 1200.00 62 155 2.000 10000.000 0.000 0.901
86 258.00 1200.00 53 134 2.000 10000.000 0.000 0.901
87 261.00 1200.00 47 139 2.000 10000.000 0.000 0.901
88 264.00 1200.00 48 156 2.000 10000.000 0.000 0.901
89 267.00 1200.00 55 130 2.000 10000.000 0.000 0.901
90 270.00 1200.00 55 132 2.000 10000.000 0.000 0.901
91 273.00 1200.00 55 159 2.000 10000.000 0.000 0.901
92 276.00 1200.00 59 128 2.000 10000.000 0.000 0.901
93 279.00 1200.00 60 128 2.000 10000.000 0.000 0.901
94 282.00 1200.00 53 146 2.000 10000.000 0.000 0.901
95 285.00 1200.00 59 148 2.000 10000.000 0.000 0.901
96 288.00 1200.00 60 131 2.000 10000.000 0.000 0.901
97 291.00 1200.00 52 150 2.000 10000.000 0.000 0.901
98 294.00 1200.00 48 155 2.000 10000.000 0.000 0.901
99 297.00 1200.00 56 132 2.000 10000.000 0.000 0.901
100 300.00 1200.00 49 128 2.000 10000.000 0.000 0.901
101 303.00 1200.00 40 128 2.000 10000.000 0.000 0.901
