# BinNR microsec tot-time (s)  O-Beam AUX Ampl(V) f(Hz) phase(deg) chi(pos)
0 0.00 1200.01 55 178 2.000 10000.000 0.000 -1.307
1 3.00 1200.01 109 326 2.000 10000.000 0.000 -1.307
2 6.00 1200.01 112 371 2.000 10000.000 0.000 -1.307
3 9.00 1200.01 100 370 2.000 10000.000 0.000 -1.307
4 12.00 1200.01 132 347 2.000 10000.000 0.000 -1.307
5 15.00 1200.01 115 351 2.000 10000.000 0.000 -1.307
6 18.00 1200.01 108 375 2.000 10000.000 0.000 -1.307
7 21.00 1200.01 137 314 2.000 10000.000 0.000 -1.307
8 24.00 1200.01 129 342 2.000 10000.000 0.000 -1.307
9 27.00 1200.01 112 324 2.000 10000.000 0.000 -1.307
10 30.00 1200.01 105 378 2.000 10000.000 0.000 -1.307
11 33.00 1200.01 103 319 2.000 10000.000 0.000 -1.307
12 36.00 1200.01 100 353 2.000 10000.000 0.000 -1.307
13 39.00 1200.01 128 364 2.000 10000.000 0.000 -1.307
14 42.00 1200.01 121 356 2.000 10000.000 0.000 -1.307
15 45.00 1200.01 90 299 2.000 10000.000 0.000 -1.307
16 48.00 1200.01 114 372 2.000 10000.000 0.000 -1.307
17 51.00 1200.01 118 325 2.000 10000.000 0.000 -1.307
18 54.00 1200.01 133 374 2.000 10000.000 0.000 -1.307
19 57.00 1200.01 133 361 2.000 10000.000 0.000 -1.307
20 60.00 1200.01 115 345 2.000 10000.000 0.000 -1.307
21 63.00 1200.01 115 358 2.000 10000.000 0.000 -1.307
22 66.00 1200.01 110 326 2.000 10000.000 0.000 -1.307
23 69.00 1200.01 113 336 2.000 10000.000 0.000 -1.307
24 72.00 1200.01 105 374 2.000 10000.000 0.000 -1.307
25 75.00 1200.01 131 337 2.000 10000.000 0.000 -1.307
26 78.00 1200.01 121 327 2.000 10000.000 0.000 -1.307
27 81.00 1200.01 94 342 2.000 10000.000 0.000 -1.307
28 84.00 1200.01 122 324 2.000 10000.000 0.000 -1.307
29 87.00 1200.01 115 332 2.000 10000.000 0.000 -1.307
30 90.00 1200.01 109 325 2.000 10000.000 0.000 -1.307
31 93.00 1200.01 105 382 2.000 10000.000 0.000 -1.307
32 96.00 1200.01 99 322 2.000 10000.000 0.000 -1.307
33 99.00 1200.01 110 345 2.000 10000.000 0.000 -1.307
34 102.00 1200.01 134 399 2.000 10000.000 0.000 -1.307
35 105.00 1200.01 117 339 2.000 10000.000 0.000 -1.307
36 108.00 1200.01 111 356 2.000 10000.000 0.000 -1.307
37 111.00 1200.01 106 339 2.000 10000.000 0.000 -1.307
38 114.00 1200.01 116 331 2.000 10000.000 0.000 -1.307
39 117.00 1200.01 112 330 2.000 10000.000 0.000 -1.307
40 120.00 1200.01 103 344 2.000 10000.000 0.000 -1.307
41 123.00 1200.01 121 374 2.000 10000.000 0.000 -1.307
42 126.00 1200.01 119 327 2.000 10000.000 0.000 -1.307
43 129.00 1200.01 114 347 2.000 10000.000 0.000 -1.307
44 132.00 1200.01 112 333 2.000 10000.000 0.000 -1.307
45 135.00 1200.01 109 367 2.000 10000.000 0.000 -1.307
46 138.00 1200.01 106 316 2.000 10000.000 0.000 -1.307
47 141.00 1200.01 105 339 2.000 10000.000 0.000 -1.307
48 144.00 1200.01 108 379 2.000 10000.000 0.000 -1.307
49 147.00 1200.01 122 359 2.000 10000.000 0.000 -1.307
50 150.00 1200.01 110 352 2.000 10000.000 0.000 -1.307
51 153.00 1200.01 111 378 2.000 10000.000 0.000 -1.307
52 156.00 1200.01 103 342 2.000 10000.000 0.000 -1.307
53 159.00 1200.01 102 290 2.000 10000.000 0.000 -1.307
54 162.00 1200.01 116 358 2.000 10000.000 0.000 -1.307
55 165.00 1200.01 104 362 2.000 10000.000 0.000 -1.307
56 168.00 1200.01 107 331 2.000 10000.000 0.000 -1.307
57 171.00 1200.01 107 352 2.000 10000.000 0.000 -1.307
58 174.00 1200.01 113 379 2.000 10000.000 0.000 -1.307
59 177.00 1200.01 110 307 2.000 10000.000 0.000 -1.307
60 180.00 1200.01 114 389 2.000 10000.000 0.000 -1.307
61 183.00 1200.01 133 340 2.000 10000.000 0.000 -1.307
62 186.00 1200.01 112 328 2.000 10000.000 0.000 -1.307
63 189.00 1200.01 126 323 2.000 10000.000 0.000 -1.307
64 192.00 1200.01 97 355 2.000 10000.000 0.000 -1.307
65 195.00 1200.01 129 326 2.000 10000.000 0.000 -1.307
66 198.00 1200.01 97 351 2.000 10000.000 0.000 -1.307
67 201.00 1200.01 116 344 2.000 10000.000 0.000 -1.307
68 204.00 1200.01 106 343 2.000 10000.000 0.000 -1.307
69 207.00 1200.01 111 346 2.000 10000.000 0.000 -1.307
70 210.00 1200.01 122 386 2.000 10000.000 0.000 -1.307
71 213.00 1200.01 117 358 2.000 10000.000 0.000 -1.307
72 216.00 1200.01 105 343 2.000 10000.000 0.000 -1.307
73 219.00 1200.01 102 359 2.000 10000.000 0.000 -1.307
74 222.00 1200.01 123 367 2.000 10000.000 0.000 -1.307
75 225.00 1200.01 123 336 2.000 10000.000 0.000 -1.307
76 228.00 1200.01 112 377 2.000 10000.000 0.000 -1.307
77 231.00 1200.01 107 315 2.000 10000.000 0.000 -1.307
78 234.00 1200.01 108 328 2.000 10000.000 0.000 -1.307
79 237.00 1200.01 104 332 2.000 10000.000 0.000 -1.307
80 240.00 1200.01 116 318 2.000 10000.000 0.000 -1.307
81 243.00 1200.01 125 331 2.000 10000.000 0.000 -1.307
82 246.00 1200.01 102 313 2.000 10000.000 0.000 -1.307
83 249.00 1200.01 122 345 2.000 10000.000 0.000 -1.307
84 252.00 1200.01 123 329 2.000 10000.000 0.000 -1.307
85 255.00 1200.01 98 359 2.000 10000.000 0.000 -1.307
86 258.00 1200.01 113 389 2.000 10000.000 0.000 -1.307
87 261.00 1200.01 107 337 2.000 10000.000 0.000 -1.307
88 264.00 1200.01 106 323 2.000 10000.000 0.000 -1.307
89 267.00 1200.01 116 339 2.000 10000.000 0.000 -1.307
90 270.00 1200.01 106 356 2.000 10000.000 0.000 -1.307
91 273.00 1200.01 112 333 2.000 10000.000 0.000 -1.307
92 276.00 1200.01 122 348 2.000 10000.000 0.000 -1.307
93 279.00 1200.01 122 308 2.000 10000.000 0.000 -1.307
94 282.00 1200.01 111 366 2.000 10000.000 0.000 -1.307
95 285.00 1200.01 97 333 2.000 10000.000 0.000 -1.307
96 288.00 1200.01 117 373 2.000 10000.000 0.000 -1.307
97 291.00 1200.01 106 364 2.000 10000.000 0.000 -1.307
98 294.00 1200.01 115 331 2.000 10000.000 0.000 -1.307
99 297.00 1200.01 103 340 2.000 10000.000 0.000 -1.307
100 300.00 1200.01 106 355 2.000 10000.000 0.000 -1.307
101 303.00 1200.01 84 267 2.000 10000.000 0.000 -1.307
