# BinNR microsec tot-time (s)  O-Beam AUX Ampl(V) f(Hz) phase(deg) chi(pos)
0 0.00 1200.00 36 70 2.000 10000.000 0.000 1.494
1 3.00 1200.00 70 157 2.000 10000.000 0.000 1.494
2 6.00 1200.00 73 165 2.000 10000.000 0.000 1.494
3 9.00 1200.00 83 152 2.000 10000.000 0.000 1.494
4 12.00 1200.00 65 168 2.000 10000.000 0.000 1.494
5 15.00 1200.00 69 148 2.000 10000.000 0.000 1.494
6 18.00 1200.00 81 163 2.000 10000.000 0.000 1.494
7 21.00 1200.00 58 150 2.000 10000.000 0.000 1.494
8 24.00 1200.00 66 178 2.000 10000.000 0.000 1.494
9 27.00 1200.00 67 156 2.000 10000.000 0.000 1.494
10 30.00 1200.00 52 173 2.000 10000.000 0.000 1.494
11 33.00 1200.00 77 158 2.000 10000.000 0.000 1.494
12 36.00 1200.00 72 157 2.000 10000.000 0.000 1.494
13 39.00 1200.00 74 139 2.000 10000.000 0.000 1.494
14 42.00 1200.00 60 166 2.000 10000.000 0.000 1.494
15 45.00 1200.00 86 165 2.000 10000.000 0.000 1.494
16 48.00 1200.00 60 160 2.000 10000.000 0.000 1.494
17 51.00 1200.00 70 163 2.000 10000.000 0.000 1.494
18 54.00 1200.00 68 164 2.000 10000.000 0.000 1.494
19 57.00 1200.00 64 152 2.000 10000.000 0.000 1.494
20 60.00 1200.00 71 128 2.000 10000.000 0.000 1.494
21 63.00 1200.00 77 168 2.000 10000.000 0.000 1.494
22 66.00 1200.00 77 150 2.000 10000.000 0.000 1.494
23 69.00 1200.00 55 152 2.000 10000.000 0.000 1.494
24 72.00 1200.00 81 160 2.000 10000.000 0.000 1.494
25 75.00 1200.00 64 169 2.000 10000.000 0.000 1.494
26 78.00 1200.00 69 165 2.000 10000.000 0.000 1.494
27 81.00 1200.00 73 154 2.000 10000.000 0.000 1.494
28 84.00 1200.00 69 164 2.000 10000.000 0.000 1.494
29 87.00 1200.00 70 158 2.000 10000.000 0.000 1.494
30 90.00 1200.00 76 175 2.000 10000.000 0.000 1.494
31 93.00 1200.00 72 164 2.000 10000.000 0.000 1.494
32 96.00 1200.00 59 180 2.000 10000.000 0.000 1.494
33 99.00 1200.00 63 118 2.000 10000.000 0.000 1.494
34 102.00 1200.00 70 178 2.000 10000.000 0.000 1.494
35 105.00 1200.00 73 149 2.000 10000.000 0.000 1.494
36 108.00 1200.00 60 164 2.000 10000.000 0.000 1.494
37 111.00 1200.00 67 146 2.000 10000.000 0.000 1.494
38 114.00 1200.00 66 186 2.000 10000.000 0.000 1.494
39 117.00 1200.00 69 172 2.000 10000.000 0.000 1.494
40 120.00 1200.00 64 175 2.000 10000.000 0.000 1.494
41 123.00 1200.00 68 161 2.000 10000.000 0.000 1.494
42 126.00 1200.00 67 139 2.000 10000.000 0.000 1.494
43 129.00 1200.00 85 176 2.000 10000.000 0.000 1.494
44 132.00 1200.00 59 131 2.000 10000.000 0.000 1.494
45 135.00 1200.00 56 145 2.000 10000.000 0.000 1.494
46 138.00 1200.00 69 165 2.000 10000.000 0.000 1.494
47 141.00 1200.00 61 151 2.000 10000.000 0.000 1.494
48 144.00 1200.00 65 179 2.000 10000.000 0.000 1.494
49 147.00 1200.00 65 160 2.000 10000.000 0.000 1.494
50 150.00 1200.00 68 151 2.000 10000.000 0.000 1.494
51 153.00 1200.00 73 152 2.000 10000.000 0.000 1.494
52 156.00 1200.00 84 170 2.000 10000.000 0.000 1.494
53 159.00 1200.00 70 161 2.000 10000.000 0.000 1.494
54 162.00 1200.00 62 153 2.000 10000.000 0.000 1.494
55 165.00 1200.00 47 150 2.000 10000.000 0.000 1.494
56 168.00 1200.00 52 169 2.000 10000.000 0.000 1.494
57 171.00 1200.00 52 159 2.000 10000.000 0.000 1.494
58 174.00 1200.00 69 162 2.000 10000.000 0.000 1.494
59 177.00 1200.00 64 178 2.000 10000.000 0.000 1.494
60 180.00 1200.00 68 157 2.000 10000.000 0.000 1.494
61 183.00 1200.00 66 162 2.000 10000.000 0.000 1.494
62 186.00 1200.00 70 175 2.000 10000.000 0.000 1.494
63 189.00 1200.00 60 171 2.000 10000.000 0.000 1.494
64 192.00 1200.00 78 166 2.000 10000.000 0.000 1.494
65 195.00 1200.00 73 144 2.000 10000.000 0.000 1.494
66 198.00 1200.00 67 154 2.000 10000.000 0.000 1.494
67 201.00 1200.00 76 148 2.000 10000.000 0.000 1.494
68 204.00 1200.00 70 148 2.000 10000.000 0.000 1.494
69 207.00 1200.00 71 152 2.000 10000.000 0.000 1.494
70 210.00 1200.00 70 185 2.000 10000.000 0.000 1.494
71 213.00 1200.00 81 168 2.000 10000.000 0.000 1.494
72 216.00 1200.00 77 139 2.000 10000.000 0.000 1.494
73 219.00 1200.00 85 160 2.000 10000.000 0.000 1.494
74 222.00 1200.00 75 163 2.000 10000.000 0.000 1.494
75 225.00 1200.00 72 161 2.000 10000.000 0.000 1.494
76 228.00 1200.00 79 151 2.000 10000.000 0.000 1.494
77 231.00 1200.00 66 140 2.000 10000.000 0.000 1.494
78 234.00 1200.00 72 167 2.000 10000.000 0.000 1.494
79 237.00 1200.00 75 156 2.000 10000.000 0.000 1.494
80 240.00 1200.00 58 141 2.000 10000.000 0.000 1.494
81 243.00 1200.00 69 153 2.000 10000.000 0.000 1.494
82 246.00 1200.00 79 143 2.000 10000.000 0.000 1.494
83 249.00 1200.00 71 152 2.000 10000.000 0.000 1.494
84 252.00 1200.00 64 127 2.000 10000.000 0.000 1.494
85 255.00 1200.00 68 164 2.000 10000.000 0.000 1.494
86 258.00 1200.00 67 163 2.000 10000.000 0.000 1.494
87 261.00 1200.00 51 155 2.000 10000.000 0.000 1.494
88 264.00 1200.00 76 141 2.000 10000.000 0.000 1.494
89 267.00 1200.00 54 170 2.000 10000.000 0.000 1.494
90 270.00 1200.00 59 174 2.000 10000.000 0.000 1.494
91 273.00 1200.00 72 144 2.000 10000.000 0.000 1.494
92 276.00 1200.00 75 136 2.000 10000.000 0.000 1.494
93 279.00 1200.00 67 150 2.000 10000.000 0.000 1.494
94 282.00 1200.00 75 164 2.000 10000.000 0.000 1.494
95 285.00 1200.00 78 143 2.000 10000.000 0.000 1.494
96 288.00 1200.00 86 153 2.000 10000.000 0.000 1.494
97 291.00 1200.00 65 170 2.000 10000.000 0.000 1.494
98 294.00 1200.00 53 151 2.000 10000.000 0.000 1.494
99 297.00 1200.00 66 147 2.000 10000.000 0.000 1.494
100 300.00 1200.00 60 156 2.000 10000.000 0.000 1.494
101 303.00 1200.00 62 147 2.000 10000.000 0.000 1.494
