# BinNR microsec tot-time (s)  O-Beam AUX Ampl(V) f(Hz) phase(deg) chi(pos)
0 0.00 1200.01 28 59 2.000 10000.000 0.000 0.692
1 3.00 1200.01 55 108 2.000 10000.000 0.000 0.692
2 6.00 1200.01 45 102 2.000 10000.000 0.000 0.692
3 9.00 1200.01 43 111 2.000 10000.000 0.000 0.692
4 12.00 1200.01 65 120 2.000 10000.000 0.000 0.692
5 15.00 1200.01 47 113 2.000 10000.000 0.000 0.692
6 18.00 1200.01 60 110 2.000 10000.000 0.000 0.692
7 21.00 1200.01 54 133 2.000 10000.000 0.000 0.692
8 24.00 1200.01 65 129 2.000 10000.000 0.000 0.692
9 27.00 1200.01 52 101 2.000 10000.000 0.000 0.692
10 30.00 1200.01 50 124 2.000 10000.000 0.000 0.692
11 33.00 1200.01 65 106 2.000 10000.000 0.000 0.692
12 36.00 1200.01 67 140 2.000 10000.000 0.000 0.692
13 39.00 1200.01 49 128 2.000 10000.000 0.000 0.692
14 42.00 1200.01 54 105 2.000 10000.000 0.000 0.692
15 45.00 1200.01 58 116 2.000 10000.000 0.000 0.692
16 48.00 1200.01 54 132 2.000 10000.000 0.000 0.692
17 51.00 1200.01 47 123 2.000 10000.000 0.000 0.692
18 54.00 1200.01 55 136 2.000 10000.000 0.000 0.692
19 57.00 1200.01 50 96 2.000 10000.000 0.000 0.692
20 60.00 1200.01 49 121 2.000 10000.000 0.000 0.692
21 63.00 1200.01 42 113 2.000 10000.000 0.000 0.692
22 66.00 1200.01 43 122 2.000 10000.000 0.000 0.692
23 69.00 1200.01 46 138 2.000 10000.000 0.000 0.692
24 72.00 1200.01 45 112 2.000 10000.000 0.000 0.692
25 75.00 1200.01 64 105 2.000 10000.000 0.000 0.692
26 78.00 1200.01 49 113 2.000 10000.000 0.000 0.692
27 81.00 1200.01 38 125 2.000 10000.000 0.000 0.692
28 84.00 1200.01 55 135 2.000 10000.000 0.000 0.692
29 87.00 1200.01 52 130 2.000 10000.000 0.000 0.692
30 90.00 1200.01 53 112 2.000 10000.000 0.000 0.692
31 93.00 1200.01 60 128 2.000 10000.000 0.000 0.692
32 96.00 1200.01 50 120 2.000 10000.000 0.000 0.692
33 99.00 1200.01 47 122 2.000 10000.000 0.000 0.692
34 102.00 1200.01 55 108 2.000 10000.000 0.000 0.692
35 105.00 1200.01 38 115 2.000 10000.000 0.000 0.692
36 108.00 1200.01 35 120 2.000 10000.000 0.000 0.692
37 111.00 1200.01 66 116 2.000 10000.000 0.000 0.692
38 114.00 1200.01 45 102 2.000 10000.000 0.000 0.692
39 117.00 1200.01 65 131 2.000 10000.000 0.000 0.692
40 120.00 1200.01 57 106 2.000 10000.000 0.000 0.692
41 123.00 1200.01 56 109 2.000 10000.000 0.000 0.692
42 126.00 1200.01 57 122 2.000 10000.000 0.000 0.692
43 129.00 1200.01 51 121 2.000 10000.000 0.000 0.692
44 132.00 1200.01 72 110 2.000 10000.000 0.000 0.692
45 135.00 1200.01 43 118 2.000 10000.000 0.000 0.692
46 138.00 1200.01 64 104 2.000 10000.000 0.000 0.692
47 141.00 1200.01 44 119 2.000 10000.000 0.000 0.692
48 144.00 1200.01 43 125 2.000 10000.000 0.000 0.692
49 147.00 1200.01 50 136 2.000 10000.000 0.000 0.692
50 150.00 1200.01 46 115 2.000 10000.000 0.000 0.692
51 153.00 1200.01 49 127 2.000 10000.000 0.000 0.692
52 156.00 1200.01 54 120 2.000 10000.000 0.000 0.692
53 159.00 1200.01 47 124 2.000 10000.000 0.000 0.692
54 162.00 1200.01 54 137 2.000 10000.000 0.000 0.692
55 165.00 1200.01 45 123 2.000 10000.000 0.000 0.692
56 168.00 1200.01 44 109 2.000 10000.000 0.000 0.692
57 171.00 1200.01 50 107 2.000 10000.000 0.000 0.692
58 174.00 1200.01 46 95 2.000 10000.000 0.000 0.692
59 177.00 1200.01 53 109 2.000 10000.000 0.000 0.692
60 180.00 1200.01 49 130 2.000 10000.000 0.000 0.692
61 183.00 1200.01 49 123 2.000 10000.000 0.000 0.692
62 186.00 1200.01 47 115 2.000 10000.000 0.000 0.692
63 189.00 1200.01 38 123 2.000 10000.000 0.000 0.692
64 192.00 1200.01 48 129 2.000 10000.000 0.000 0.692
65 195.00 1200.01 52 120 2.000 10000.000 0.000 0.692
66 198.00 1200.01 48 108 2.000 10000.000 0.000 0.692
67 201.00 1200.01 46 127 2.000 10000.000 0.000 0.692
68 204.00 1200.01 55 149 2.000 10000.000 0.000 0.692
69 207.00 1200.01 50 113 2.000 10000.000 0.000 0.692
70 210.00 1200.01 37 125 2.000 10000.000 0.000 0.692
71 213.00 1200.01 51 125 2.000 10000.000 0.000 0.692
72 216.00 1200.01 50 127 2.000 10000.000 0.000 0.692
73 219.00 1200.01 48 115 2.000 10000.000 0.000 0.692
74 222.00 1200.01 60 111 2.000 10000.000 0.000 0.692
75 225.00 1200.01 54 129 2.000 10000.000 0.000 0.692
76 228.00 1200.01 55 94 2.000 10000.000 0.000 0.692
77 231.00 1200.01 57 113 2.000 10000.000 0.000 0.692
78 234.00 1200.01 54 126 2.000 10000.000 0.000 0.692
79 237.00 1200.01 46 128 2.000 10000.000 0.000 0.692
80 240.00 1200.01 56 105 2.000 10000.000 0.000 0.692
81 243.00 1200.01 65 121 2.000 10000.000 0.000 0.692
82 246.00 1200.01 54 128 2.000 10000.000 0.000 0.692
83 249.00 1200.01 54 114 2.000 10000.000 0.000 0.692
84 252.00 1200.01 41 114 2.000 10000.000 0.000 0.692
85 255.00 1200.01 64 112 2.000 10000.000 0.000 0.692
86 258.00 1200.01 53 131 2.000 10000.000 0.000 0.692
87 261.00 1200.01 43 117 2.000 10000.000 0.000 0.692
88 264.00 1200.01 58 115 2.000 10000.000 0.000 0.692
89 267.00 1200.01 39 106 2.000 10000.000 0.000 0.692
90 270.00 1200.01 47 128 2.000 10000.000 0.000 0.692
91 273.00 1200.01 46 106 2.000 10000.000 0.000 0.692
92 276.00 1200.01 49 117 2.000 10000.000 0.000 0.692
93 279.00 1200.01 41 125 2.000 10000.000 0.000 0.692
94 282.00 1200.01 42 107 2.000 10000.000 0.000 0.692
95 285.00 1200.01 51 104 2.000 10000.000 0.000 0.692
96 288.00 1200.01 46 134 2.000 10000.000 0.000 0.692
97 291.00 1200.01 61 138 2.000 10000.000 0.000 0.692
98 294.00 1200.01 46 109 2.000 10000.000 0.000 0.692
99 297.00 1200.01 65 108 2.000 10000.000 0.000 0.692
100 300.00 1200.01 51 109 2.000 10000.000 0.000 0.692
101 303.00 1200.01 41 88 2.000 10000.000 0.000 0.692
