# BinNR microsec tot-time (s)  O-Beam AUX Ampl(V) f(Hz) phase(deg) chi(pos)
0 0.00 1200.00 33 83 2.000 10000.000 0.000 1.296
1 3.00 1200.00 68 183 2.000 10000.000 0.000 1.296
2 6.00 1200.00 73 186 2.000 10000.000 0.000 1.296
3 9.00 1200.00 63 160 2.000 10000.000 0.000 1.296
4 12.00 1200.00 79 157 2.000 10000.000 0.000 1.296
5 15.00 1200.00 68 175 2.000 10000.000 0.000 1.296
6 18.00 1200.00 64 190 2.000 10000.000 0.000 1.296
7 21.00 1200.00 88 190 2.000 10000.000 0.000 1.296
8 24.00 1200.00 72 184 2.000 10000.000 0.000 1.296
9 27.00 1200.00 70 176 2.000 10000.000 0.000 1.296
10 30.00 1200.00 73 164 2.000 10000.000 0.000 1.296
11 33.00 1200.00 70 176 2.000 10000.000 0.000 1.296
12 36.00 1200.00 69 151 2.000 10000.000 0.000 1.296
13 39.00 1200.00 79 185 2.000 10000.000 0.000 1.296
14 42.00 1200.00 53 148 2.000 10000.000 0.000 1.296
15 45.00 1200.00 75 172 2.000 10000.000 0.000 1.296
16 48.00 1200.00 71 155 2.000 10000.000 0.000 1.296
17 51.00 1200.00 63 182 2.000 10000.000 0.000 1.296
18 54.00 1200.00 66 146 2.000 10000.000 0.000 1.296
19 57.00 1200.00 63 184 2.000 10000.000 0.000 1.296
20 60.00 1200.00 57 196 2.000 10000.000 0.000 1.296
21 63.00 1200.00 72 189 2.000 10000.000 0.000 1.296
22 66.00 1200.00 65 160 2.000 10000.000 0.000 1.296
23 69.00 1200.00 76 151 2.000 10000.000 0.000 1.296
24 72.00 1200.00 70 160 2.000 10000.000 0.000 1.296
25 75.00 1200.00 68 155 2.000 10000.000 0.000 1.296
26 78.00 1200.00 51 165 2.000 10000.000 0.000 1.296
27 81.00 1200.00 64 184 2.000 10000.000 0.000 1.296
28 84.00 1200.00 67 175 2.000 10000.000 0.000 1.296
29 87.00 1200.00 61 191 2.000 10000.000 0.000 1.296
30 90.00 1200.00 70 174 2.000 10000.000 0.000 1.296
31 93.00 1200.00 46 176 2.000 10000.000 0.000 1.296
32 96.00 1200.00 69 158 2.000 10000.000 0.000 1.296
33 99.00 1200.00 56 182 2.000 10000.000 0.000 1.296
34 102.00 1200.00 56 164 2.000 10000.000 0.000 1.296
35 105.00 1200.00 57 179 2.000 10000.000 0.000 1.296
36 108.00 1200.00 78 171 2.000 10000.000 0.000 1.296
37 111.00 1200.00 64 180 2.000 10000.000 0.000 1.296
38 114.00 1200.00 69 175 2.000 10000.000 0.000 1.296
39 117.00 1200.00 66 171 2.000 10000.000 0.000 1.296
40 120.00 1200.00 62 181 2.000 10000.000 0.000 1.296
41 123.00 1200.00 60 165 2.000 10000.000 0.000 1.296
42 126.00 1200.00 62 166 2.000 10000.000 0.000 1.296
43 129.00 1200.00 68 171 2.000 10000.000 0.000 1.296
44 132.00 1200.00 85 204 2.000 10000.000 0.000 1.296
45 135.00 1200.00 65 170 2.000 10000.000 0.000 1.296
46 138.00 1200.00 75 159 2.000 10000.000 0.000 1.296
47 141.00 1200.00 68 159 2.000 10000.000 0.000 1.296
48 144.00 1200.00 70 163 2.000 10000.000 0.000 1.296
49 147.00 1200.00 72 153 2.000 10000.000 0.000 1.296
50 150.00 1200.00 69 145 2.000 10000.000 0.000 1.296
51 153.00 1200.00 61 154 2.000 10000.000 0.000 1.296
52 156.00 1200.00 69 165 2.000 10000.000 0.000 1.296
53 159.00 1200.00 81 175 2.000 10000.000 0.000 1.296
54 162.00 1200.00 64 170 2.000 10000.000 0.000 1.296
55 165.00 1200.00 73 193 2.000 10000.000 0.000 1.296
56 168.00 1200.00 85 163 2.000 10000.000 0.000 1.296
57 171.00 1200.00 75 167 2.000 10000.000 0.000 1.296
58 174.00 1200.00 76 177 2.000 10000.000 0.000 1.296
59 177.00 1200.00 56 194 2.000 10000.000 0.000 1.296
60 180.00 1200.00 63 203 2.000 10000.000 0.000 1.296
61 183.00 1200.00 90 152 2.000 10000.000 0.000 1.296
62 186.00 1200.00 72 189 2.000 10000.000 0.000 1.296
63 189.00 1200.00 56 146 2.000 10000.000 0.000 1.296
64 192.00 1200.00 69 158 2.000 10000.000 0.000 1.296
65 195.00 1200.00 57 180 2.000 10000.000 0.000 1.296
66 198.00 1200.00 62 174 2.000 10000.000 0.000 1.296
67 201.00 1200.00 67 156 2.000 10000.000 0.000 1.296
68 204.00 1200.00 71 174 2.000 10000.000 0.000 1.296
69 207.00 1200.00 64 162 2.000 10000.000 0.000 1.296
70 210.00 1200.00 58 165 2.000 10000.000 0.000 1.296
71 213.00 1200.00 78 154 2.000 10000.000 0.000 1.296
72 216.00 1200.00 67 171 2.000 10000.000 0.000 1.296
73 219.00 1200.00 62 178 2.000 10000.000 0.000 1.296
74 222.00 1200.00 66 171 2.000 10000.000 0.000 1.296
75 225.00 1200.00 68 184 2.000 10000.000 0.000 1.296
76 228.00 1200.00 61 177 2.000 10000.000 0.000 1.296
77 231.00 1200.00 54 159 2.000 10000.000 0.000 1.296
78 234.00 1200.00 81 171 2.000 10000.000 0.000 1.296
79 237.00 1200.00 64 178 2.000 10000.000 0.000 1.296
80 240.00 1200.00 60 169 2.000 10000.000 0.000 1.296
81 243.00 1200.00 66 174 2.000 10000.000 0.000 1.296
82 246.00 1200.00 86 174 2.000 10000.000 0.000 1.296
83 249.00 1200.00 68 172 2.000 10000.000 0.000 1.296
84 252.00 1200.00 60 170 2.000 10000.000 0.000 1.296
85 255.00 1200.00 60 168 2.000 10000.000 0.000 1.296
86 258.00 1200.00 76 168 2.000 10000.000 0.000 1.296
87 261.00 1200.00 70 177 2.000 10000.000 0.000 1.296
88 264.00 1200.00 60 192 2.000 10000.000 0.000 1.296
89 267.00 1200.00 62 169 2.000 10000.000 0.000 1.296
90 270.00 1200.00 45 176 2.000 10000.000 0.000 1.296
91 273.00 1200.00 68 169 2.000 10000.000 0.000 1.296
92 276.00 1200.00 82 182 2.000 10000.000 0.000 1.296
93 279.00 1200.00 52 162 2.000 10000.000 0.000 1.296
94 282.00 1200.00 52 183 2.000 10000.000 0.000 1.296
95 285.00 1200.00 64 171 2.000 10000.000 0.000 1.296
96 288.00 1200.00 69 182 2.000 10000.000 0.000 1.296
97 291.00 1200.00 60 168 2.000 10000.000 0.000 1.296
98 294.00 1200.00 74 174 2.000 10000.000 0.000 1.296
99 297.00 1200.00 75 165 2.000 10000.000 0.000 1.296
100 300.00 1200.00 64 173 2.000 10000.000 0.000 1.296
101 303.00 1200.00 63 159 2.000 10000.000 0.000 1.296
