# BinNR microsec tot-time (s)  O-Beam AUX Ampl(V) f(Hz) phase(deg) chi(pos)
0 0.00 1200.00 73 202 2.000 10000.000 0.000 -1.110
1 3.00 1200.00 134 374 2.000 10000.000 0.000 -1.110
2 6.00 1200.00 144 403 2.000 10000.000 0.000 -1.110
3 9.00 1200.00 134 423 2.000 10000.000 0.000 -1.110
4 12.00 1200.00 135 429 2.000 10000.000 0.000 -1.110
5 15.00 1200.00 145 369 2.000 10000.000 0.000 -1.110
6 18.00 1200.00 140 386 2.000 10000.000 0.000 -1.110
7 21.00 1200.00 131 406 2.000 10000.000 0.000 -1.110
8 24.00 1200.00 142 410 2.000 10000.000 0.000 -1.110
9 27.00 1200.00 153 373 2.000 10000.000 0.000 -1.110
10 30.00 1200.00 146 426 2.000 10000.000 0.000 -1.110
11 33.00 1200.00 126 437 2.000 10000.000 0.000 -1.110
12 36.00 1200.00 116 374 2.000 10000.000 0.000 -1.110
13 39.00 1200.00 134 384 2.000 10000.000 0.000 -1.110
14 42.00 1200.00 133 414 2.000 10000.000 0.000 -1.110
15 45.00 1200.00 111 375 2.000 10000.000 0.000 -1.110
16 48.00 1200.00 131 375 2.000 10000.000 0.000 -1.110
17 51.00 1200.00 118 449 2.000 10000.000 0.000 -1.110
18 54.00 1200.00 128 400 2.000 10000.000 0.000 -1.110
19 57.00 1200.00 137 385 2.000 10000.000 0.000 -1.110
20 60.00 1200.00 162 409 2.000 10000.000 0.000 -1.110
21 63.00 1200.00 136 375 2.000 10000.000 0.000 -1.110
22 66.00 1200.00 123 389 2.000 10000.000 0.000 -1.110
23 69.00 1200.00 118 423 2.000 10000.000 0.000 -1.110
24 72.00 1200.00 134 394 2.000 10000.000 0.000 -1.110
25 75.00 1200.00 132 389 2.000 10000.000 0.000 -1.110
26 78.00 1200.00 135 389 2.000 10000.000 0.000 -1.110
27 81.00 1200.00 116 387 2.000 10000.000 0.000 -1.110
28 84.00 1200.00 145 388 2.000 10000.000 0.000 -1.110
29 87.00 1200.00 138 410 2.000 10000.000 0.000 -1.110
30 90.00 1200.00 117 411 2.000 10000.000 0.000 -1.110
31 93.00 1200.00 141 337 2.000 10000.000 0.000 -1.110
32 96.00 1200.00 125 396 2.000 10000.000 0.000 -1.110
33 99.00 1200.00 121 380 2.000 10000.000 0.000 -1.110
34 102.00 1200.00 139 384 2.000 10000.000 0.000 -1.110
35 105.00 1200.00 129 365 2.000 10000.000 0.000 -1.110
36 108.00 1200.00 152 404 2.000 10000.000 0.000 -1.110
37 111.00 1200.00 130 431 2.000 10000.000 0.000 -1.110
38 114.00 1200.00 134 454 2.000 10000.000 0.000 -1.110
39 117.00 1200.00 147 381 2.000 10000.000 0.000 -1.110
40 120.00 1200.00 137 359 2.000 10000.000 0.000 -1.110
41 123.00 1200.00 143 396 2.000 10000.000 0.000 -1.110
42 126.00 1200.00 128 405 2.000 10000.000 0.000 -1.110
43 129.00 1200.00 129 392 2.000 10000.000 0.000 -1.110
44 132.00 1200.00 132 378 2.000 10000.000 0.000 -1.110
45 135.00 1200.00 142 380 2.000 10000.000 0.000 -1.110
46 138.00 1200.00 133 390 2.000 10000.000 0.000 -1.110
47 141.00 1200.00 126 373 2.000 10000.000 0.000 -1.110
48 144.00 1200.00 150 407 2.000 10000.000 0.000 -1.110
49 147.00 1200.00 118 383 2.000 10000.000 0.000 -1.110
50 150.00 1200.00 134 408 2.000 10000.000 0.000 -1.110
51 153.00 1200.00 132 403 2.000 10000.000 0.000 -1.110
52 156.00 1200.00 131 398 2.000 10000.000 0.000 -1.110
53 159.00 1200.00 126 406 2.000 10000.000 0.000 -1.110
54 162.00 1200.00 143 434 2.000 10000.000 0.000 -1.110
55 165.00 1200.00 130 399 2.000 10000.000 0.000 -1.110
56 168.00 1200.00 147 408 2.000 10000.000 0.000 -1.110
57 171.00 1200.00 126 366 2.000 10000.000 0.000 -1.110
58 174.00 1200.00 152 407 2.000 10000.000 0.000 -1.110
59 177.00 1200.00 144 359 2.000 10000.000 0.000 -1.110
60 180.00 1200.00 151 391 2.000 10000.000 0.000 -1.110
61 183.00 1200.00 140 425 2.000 10000.000 0.000 -1.110
62 186.00 1200.00 143 404 2.000 10000.000 0.000 -1.110
63 189.00 1200.00 123 391 2.000 10000.000 0.000 -1.110
64 192.00 1200.00 135 395 2.000 10000.000 0.000 -1.110
65 195.00 1200.00 149 388 2.000 10000.000 0.000 -1.110
66 198.00 1200.00 132 394 2.000 10000.000 0.000 -1.110
67 201.00 1200.00 149 395 2.000 10000.000 0.000 -1.110
68 204.00 1200.00 143 418 2.000 10000.000 0.000 -1.110
69 207.00 1200.00 137 434 2.000 10000.000 0.000 -1.110
70 210.00 1200.00 148 400 2.000 10000.000 0.000 -1.110
71 213.00 1200.00 140 413 2.000 10000.000 0.000 -1.110
72 216.00 1200.00 148 410 2.000 10000.000 0.000 -1.110
73 219.00 1200.00 128 392 2.000 10000.000 0.000 -1.110
74 222.00 1200.00 124 383 2.000 10000.000 0.000 -1.110
75 225.00 1200.00 133 366 2.000 10000.000 0.000 -1.110
76 228.00 1200.00 119 369 2.000 10000.000 0.000 -1.110
77 231.00 1200.00 116 407 2.000 10000.000 0.000 -1.110
78 234.00 1200.00 138 413 2.000 10000.000 0.000 -1.110
79 237.00 1200.00 149 391 2.000 10000.000 0.000 -1.110
80 240.00 1200.00 130 415 2.000 10000.000 0.000 -1.110
81 243.00 1200.00 113 367 2.000 10000.000 0.000 -1.110
82 246.00 1200.00 145 390 2.000 10000.000 0.000 -1.110
83 249.00 1200.00 127 373 2.000 10000.000 0.000 -1.110
84 252.00 1200.00 155 370 2.000 10000.000 0.000 -1.110
85 255.00 1200.00 129 397 2.000 10000.000 0.000 -1.110
86 258.00 1200.00 157 386 2.000 10000.000 0.000 -1.110
87 261.00 1200.00 120 385 2.000 10000.000 0.000 -1.110
88 264.00 1200.00 118 369 2.000 10000.000 0.000 -1.110
89 267.00 1200.00 146 405 2.000 10000.000 0.000 -1.110
90 270.00 1200.00 147 420 2.000 10000.000 0.000 -1.110
91 273.00 1200.00 128 419 2.000 10000.000 0.000 -1.110
92 276.00 1200.00 137 404 2.000 10000.000 0.000 -1.110
93 279.00 1200.00 134 381 2.000 10000.000 0.000 -1.110
94 282.00 1200.00 143 437 2.000 10000.000 0.000 -1.110
95 285.00 1200.00 131 420 2.000 10000.000 0.000 -1.110
96 288.00 1200.00 135 393 2.000 10000.000 0.000 -1.110
97 291.00 1200.00 129 379 2.000 10000.000 0.000 -1.110
98 294.00 1200.00 131 445 2.000 10000.000 0.000 -1.110
99 297.00 1200.00 116 391 2.000 10000.000 0.000 -1.110
100 300.00 1200.00 126 371 2.000 10000.000 0.000 -1.110
101 303.00 1200.00 120 352 2.000 10000.000 0.000 -1.110
