# BinNR microsec tot-time (s)  O-Beam AUX Ampl_1(V) f_1(Hz) phase_1(deg) Ampl_2(V) f_2(Hz) phase_2(deg) chi(pos)
0 0.00 1200.00 88 220 0.769 3.100 10000.000 0.000
1 3.00 1200.00 163 358 0.769 3.100 10000.000 0.000
2 6.00 1200.00 176 385 0.769 3.100 10000.000 0.000
3 9.00 1200.00 131 384 0.769 3.100 10000.000 0.000
4 12.00 1200.00 128 418 0.769 3.100 10000.000 0.000
5 15.00 1200.00 104 381 0.769 3.100 10000.000 0.000
6 18.00 1200.00 89 379 0.769 3.100 10000.000 0.000
7 21.00 1200.00 88 400 0.769 3.100 10000.000 0.000
8 24.00 1200.00 100 450 0.769 3.100 10000.000 0.000
9 27.00 1200.00 77 380 0.769 3.100 10000.000 0.000
10 30.00 1200.00 97 381 0.769 3.100 10000.000 0.000
11 33.00 1200.00 76 360 0.769 3.100 10000.000 0.000
12 36.00 1200.00 77 355 0.769 3.100 10000.000 0.000
13 39.00 1200.00 83 360 0.769 3.100 10000.000 0.000
14 42.00 1200.00 87 374 0.769 3.100 10000.000 0.000
15 45.00 1200.00 85 383 0.769 3.100 10000.000 0.000
16 48.00 1200.00 93 403 0.769 3.100 10000.000 0.000
17 51.00 1200.00 74 403 0.769 3.100 10000.000 0.000
18 54.00 1200.00 109 405 0.769 3.100 10000.000 0.000
19 57.00 1200.00 115 389 0.769 3.100 10000.000 0.000
20 60.00 1200.00 143 381 0.769 3.100 10000.000 0.000
21 63.00 1200.00 165 372 0.769 3.100 10000.000 0.000
22 66.00 1200.00 188 361 0.769 3.100 10000.000 0.000
23 69.00 1200.00 184 385 0.769 3.100 10000.000 0.000
24 72.00 1200.00 206 377 0.769 3.100 10000.000 0.000
25 75.00 1200.00 199 383 0.769 3.100 10000.000 0.000
26 78.00 1200.00 249 378 0.769 3.100 10000.000 0.000
27 81.00 1200.00 221 405 0.769 3.100 10000.000 0.000
28 84.00 1200.00 229 474 0.769 3.100 10000.000 0.000
29 87.00 1200.00 220 482 0.769 3.100 10000.000 0.000
30 90.00 1200.00 218 605 0.769 3.100 10000.000 0.000
31 93.00 1200.00 223 680 0.769 3.100 10000.000 0.000
32 96.00 1200.00 200 702 0.769 3.100 10000.000 0.000
33 99.00 1200.00 198 743 0.769 3.100 10000.000 0.000
34 102.00 1200.00 203 709 0.769 3.100 10000.000 0.000
35 105.00 1200.00 142 662 0.769 3.100 10000.000 0.000
36 108.00 1200.00 120 597 0.769 3.100 10000.000 0.000
37 111.00 1200.00 114 527 0.769 3.100 10000.000 0.000
38 114.00 1200.00 98 401 0.769 3.100 10000.000 0.000
39 117.00 1200.00 87 295 0.769 3.100 10000.000 0.000
40 120.00 1200.00 85 230 0.769 3.100 10000.000 0.000
41 123.00 1200.00 105 185 0.769 3.100 10000.000 0.000
42 126.00 1200.00 70 146 0.769 3.100 10000.000 0.000
43 129.00 1200.00 80 123 0.769 3.100 10000.000 0.000
44 132.00 1200.00 84 135 0.769 3.100 10000.000 0.000
45 135.00 1200.00 93 115 0.769 3.100 10000.000 0.000
46 138.00 1200.00 87 122 0.769 3.100 10000.000 0.000
47 141.00 1200.00 82 107 0.769 3.100 10000.000 0.000
48 144.00 1200.00 87 129 0.769 3.100 10000.000 0.000
49 147.00 1200.00 100 139 0.769 3.100 10000.000 0.000
50 150.00 1200.00 81 158 0.769 3.100 10000.000 0.000
51 153.00 1200.00 112 207 0.769 3.100 10000.000 0.000
52 156.00 1200.00 112 271 0.769 3.100 10000.000 0.000
53 159.00 1200.00 137 327 0.769 3.100 10000.000 0.000
54 162.00 1200.00 142 361 0.769 3.100 10000.000 0.000
55 165.00 1200.00 172 486 0.769 3.100 10000.000 0.000
56 168.00 1200.00 184 555 0.769 3.100 10000.000 0.000
57 171.00 1200.00 206 602 0.769 3.100 10000.000 0.000
58 174.00 1200.00 217 678 0.769 3.100 10000.000 0.000
59 177.00 1200.00 214 710 0.769 3.100 10000.000 0.000
60 180.00 1200.00 194 785 0.769 3.100 10000.000 0.000
61 183.00 1200.00 210 796 0.769 3.100 10000.000 0.000
62 186.00 1200.00 190 794 0.769 3.100 10000.000 0.000
63 189.00 1200.00 160 790 0.769 3.100 10000.000 0.000
64 192.00 1200.00 152 789 0.769 3.100 10000.000 0.000
65 195.00 1200.00 136 752 0.769 3.100 10000.000 0.000
66 198.00 1200.00 126 741 0.769 3.100 10000.000 0.000
67 201.00 1200.00 123 640 0.769 3.100 10000.000 0.000
68 204.00 1200.00 97 567 0.769 3.100 10000.000 0.000
69 207.00 1200.00 115 485 0.769 3.100 10000.000 0.000
70 210.00 1200.00 117 440 0.769 3.100 10000.000 0.000
71 213.00 1200.00 120 363 0.769 3.100 10000.000 0.000
72 216.00 1200.00 111 254 0.769 3.100 10000.000 0.000
73 219.00 1200.00 137 205 0.769 3.100 10000.000 0.000
74 222.00 1200.00 138 183 0.769 3.100 10000.000 0.000
75 225.00 1200.00 121 177 0.769 3.100 10000.000 0.000
76 228.00 1200.00 125 161 0.769 3.100 10000.000 0.000
77 231.00 1200.00 148 136 0.769 3.100 10000.000 0.000
78 234.00 1200.00 139 146 0.769 3.100 10000.000 0.000
79 237.00 1200.00 118 132 0.769 3.100 10000.000 0.000
80 240.00 1200.00 124 91 0.769 3.100 10000.000 0.000
81 243.00 1200.00 122 129 0.769 3.100 10000.000 0.000
82 246.00 1200.00 129 144 0.769 3.100 10000.000 0.000
83 249.00 1200.00 130 159 0.769 3.100 10000.000 0.000
84 252.00 1200.00 119 182 0.769 3.100 10000.000 0.000
85 255.00 1200.00 113 229 0.769 3.100 10000.000 0.000
86 258.00 1200.00 133 322 0.769 3.100 10000.000 0.000
87 261.00 1200.00 113 360 0.769 3.100 10000.000 0.000
88 264.00 1200.00 121 402 0.769 3.100 10000.000 0.000
89 267.00 1200.00 124 525 0.769 3.100 10000.000 0.000
90 270.00 1200.00 117 585 0.769 3.100 10000.000 0.000
91 273.00 1200.00 135 673 0.769 3.100 10000.000 0.000
92 276.00 1200.00 111 750 0.769 3.100 10000.000 0.000
93 279.00 1200.00 141 751 0.769 3.100 10000.000 0.000
94 282.00 1200.00 141 757 0.769 3.100 10000.000 0.000
95 285.00 1200.00 115 689 0.769 3.100 10000.000 0.000
96 288.00 1200.00 144 678 0.769 3.100 10000.000 0.000
97 291.00 1200.00 115 574 0.769 3.100 10000.000 0.000
98 294.00 1200.00 115 489 0.769 3.100 10000.000 0.000
99 297.00 1200.00 131 415 0.769 3.100 10000.000 0.000
100 300.00 1200.00 147 340 0.769 3.100 10000.000 0.000
101 303.00 1200.00 105 303 0.769 3.100 10000.000 0.000
102 306.00 1200.00 118 261 0.769 3.100 10000.000 0.000
103 309.00 1200.00 122 296 0.769 3.100 10000.000 0.000
104 312.00 1200.00 111 289 0.769 3.100 10000.000 0.000
105 315.00 1200.00 119 367 0.769 3.100 10000.000 0.000
106 318.00 1200.00 116 372 0.769 3.100 10000.000 0.000
107 321.00 1200.00 133 365 0.769 3.100 10000.000 0.000
108 324.00 1200.00 123 368 0.769 3.100 10000.000 0.000
109 327.00 1200.00 116 410 0.769 3.100 10000.000 0.000
110 330.00 1200.00 134 435 0.769 3.100 10000.000 0.000
111 333.00 1200.00 133 383 0.769 3.100 10000.000 0.000
112 336.00 1200.00 124 381 0.769 3.100 10000.000 0.000
113 339.00 1200.00 108 394 0.769 3.100 10000.000 0.000
114 342.00 1200.00 113 342 0.769 3.100 10000.000 0.000
115 345.00 1200.00 124 415 0.769 3.100 10000.000 0.000
116 348.00 1200.00 121 366 0.769 3.100 10000.000 0.000
117 351.00 1200.00 111 389 0.769 3.100 10000.000 0.000
118 354.00 1200.00 126 343 0.769 3.100 10000.000 0.000
119 357.00 1200.00 108 389 0.769 3.100 10000.000 0.000
120 360.00 1200.00 121 388 0.769 3.100 10000.000 0.000
121 363.00 1200.00 111 365 0.769 3.100 10000.000 0.000
122 366.00 1200.00 119 388 0.769 3.100 10000.000 0.000
123 369.00 1200.00 115 359 0.769 3.100 10000.000 0.000
124 372.00 1200.00 128 365 0.769 3.100 10000.000 0.000
125 375.00 1200.00 139 386 0.769 3.100 10000.000 0.000
126 378.00 1200.00 131 372 0.769 3.100 10000.000 0.000
127 381.00 1200.00 128 385 0.769 3.100 10000.000 0.000
128 384.00 1200.00 163 366 0.769 3.100 10000.000 0.000
129 387.00 1200.00 147 376 0.769 3.100 10000.000 0.000
130 390.00 1200.00 170 341 0.769 3.100 10000.000 0.000
131 393.00 1200.00 191 361 0.769 3.100 10000.000 0.000
132 396.00 1200.00 223 374 0.769 3.100 10000.000 0.000
133 399.00 1200.00 192 373 0.769 3.100 10000.000 0.000
134 402.00 1200.00 196 390 0.769 3.100 10000.000 0.000
