# BinNR microsec tot-time (s)  O-Beam AUX Ampl(V) f(Hz) phase(deg) chi(pos)
0 0.00 1200.01 185 538 1.000 10000.000 0.000 1.296
1 3.00 1200.01 324 1125 1.000 10000.000 0.000 1.296
2 6.00 1200.01 306 1095 1.000 10000.000 0.000 1.296
3 9.00 1200.01 342 1019 1.000 10000.000 0.000 1.296
4 12.00 1200.01 362 1144 1.000 10000.000 0.000 1.296
5 15.00 1200.01 331 1152 1.000 10000.000 0.000 1.296
6 18.00 1200.01 317 1124 1.000 10000.000 0.000 1.296
7 21.00 1200.01 340 1181 1.000 10000.000 0.000 1.296
8 24.00 1200.01 363 1147 1.000 10000.000 0.000 1.296
9 27.00 1200.01 368 1080 1.000 10000.000 0.000 1.296
10 30.00 1200.01 355 1071 1.000 10000.000 0.000 1.296
11 33.00 1200.01 346 980 1.000 10000.000 0.000 1.296
12 36.00 1200.01 311 1007 1.000 10000.000 0.000 1.296
13 39.00 1200.01 305 1011 1.000 10000.000 0.000 1.296
14 42.00 1200.01 319 913 1.000 10000.000 0.000 1.296
15 45.00 1200.01 290 900 1.000 10000.000 0.000 1.296
16 48.00 1200.01 279 849 1.000 10000.000 0.000 1.296
17 51.00 1200.01 281 807 1.000 10000.000 0.000 1.296
18 54.00 1200.01 275 765 1.000 10000.000 0.000 1.296
19 57.00 1200.01 247 753 1.000 10000.000 0.000 1.296
20 60.00 1200.01 258 722 1.000 10000.000 0.000 1.296
21 63.00 1200.01 248 673 1.000 10000.000 0.000 1.296
22 66.00 1200.01 255 699 1.000 10000.000 0.000 1.296
23 69.00 1200.01 238 700 1.000 10000.000 0.000 1.296
24 72.00 1200.01 257 725 1.000 10000.000 0.000 1.296
25 75.00 1200.01 239 696 1.000 10000.000 0.000 1.296
26 78.00 1200.01 266 754 1.000 10000.000 0.000 1.296
27 81.00 1200.01 286 736 1.000 10000.000 0.000 1.296
28 84.00 1200.01 265 848 1.000 10000.000 0.000 1.296
29 87.00 1200.01 278 795 1.000 10000.000 0.000 1.296
30 90.00 1200.01 302 938 1.000 10000.000 0.000 1.296
31 93.00 1200.01 281 945 1.000 10000.000 0.000 1.296
32 96.00 1200.01 329 923 1.000 10000.000 0.000 1.296
33 99.00 1200.01 325 977 1.000 10000.000 0.000 1.296
34 102.00 1200.01 310 1056 1.000 10000.000 0.000 1.296
35 105.00 1200.01 335 1063 1.000 10000.000 0.000 1.296
36 108.00 1200.01 357 1077 1.000 10000.000 0.000 1.296
37 111.00 1200.01 324 1095 1.000 10000.000 0.000 1.296
38 114.00 1200.01 359 1095 1.000 10000.000 0.000 1.296
39 117.00 1200.01 345 1162 1.000 10000.000 0.000 1.296
40 120.00 1200.01 368 1089 1.000 10000.000 0.000 1.296
41 123.00 1200.01 350 1171 1.000 10000.000 0.000 1.296
42 126.00 1200.01 372 1107 1.000 10000.000 0.000 1.296
43 129.00 1200.01 328 1086 1.000 10000.000 0.000 1.296
44 132.00 1200.01 338 1002 1.000 10000.000 0.000 1.296
45 135.00 1200.01 324 965 1.000 10000.000 0.000 1.296
46 138.00 1200.01 320 991 1.000 10000.000 0.000 1.296
47 141.00 1200.01 301 964 1.000 10000.000 0.000 1.296
48 144.00 1200.01 342 864 1.000 10000.000 0.000 1.296
49 147.00 1200.01 306 822 1.000 10000.000 0.000 1.296
50 150.00 1200.01 267 806 1.000 10000.000 0.000 1.296
51 153.00 1200.01 270 776 1.000 10000.000 0.000 1.296
52 156.00 1200.01 267 784 1.000 10000.000 0.000 1.296
53 159.00 1200.01 263 723 1.000 10000.000 0.000 1.296
54 162.00 1200.01 271 727 1.000 10000.000 0.000 1.296
55 165.00 1200.01 243 684 1.000 10000.000 0.000 1.296
56 168.00 1200.01 243 673 1.000 10000.000 0.000 1.296
57 171.00 1200.01 233 663 1.000 10000.000 0.000 1.296
58 174.00 1200.01 243 711 1.000 10000.000 0.000 1.296
59 177.00 1200.01 268 707 1.000 10000.000 0.000 1.296
60 180.00 1200.01 284 766 1.000 10000.000 0.000 1.296
61 183.00 1200.01 264 830 1.000 10000.000 0.000 1.296
62 186.00 1200.01 279 852 1.000 10000.000 0.000 1.296
63 189.00 1200.01 278 849 1.000 10000.000 0.000 1.296
64 192.00 1200.01 279 925 1.000 10000.000 0.000 1.296
65 195.00 1200.01 340 903 1.000 10000.000 0.000 1.296
66 198.00 1200.01 287 1082 1.000 10000.000 0.000 1.296
67 201.00 1200.01 329 1046 1.000 10000.000 0.000 1.296
68 204.00 1200.01 319 1028 1.000 10000.000 0.000 1.296
69 207.00 1200.01 312 1102 1.000 10000.000 0.000 1.296
70 210.00 1200.01 316 1079 1.000 10000.000 0.000 1.296
71 213.00 1200.01 343 1116 1.000 10000.000 0.000 1.296
72 216.00 1200.01 361 1073 1.000 10000.000 0.000 1.296
73 219.00 1200.01 386 1127 1.000 10000.000 0.000 1.296
74 222.00 1200.01 385 1142 1.000 10000.000 0.000 1.296
75 225.00 1200.01 347 1080 1.000 10000.000 0.000 1.296
76 228.00 1200.01 358 1097 1.000 10000.000 0.000 1.296
77 231.00 1200.01 309 1027 1.000 10000.000 0.000 1.296
78 234.00 1200.01 324 1079 1.000 10000.000 0.000 1.296
79 237.00 1200.01 304 988 1.000 10000.000 0.000 1.296
80 240.00 1200.01 314 972 1.000 10000.000 0.000 1.296
81 243.00 1200.01 303 912 1.000 10000.000 0.000 1.296
82 246.00 1200.01 295 909 1.000 10000.000 0.000 1.296
83 249.00 1200.01 304 811 1.000 10000.000 0.000 1.296
84 252.00 1200.01 273 786 1.000 10000.000 0.000 1.296
85 255.00 1200.01 275 752 1.000 10000.000 0.000 1.296
86 258.00 1200.01 298 710 1.000 10000.000 0.000 1.296
87 261.00 1200.01 237 703 1.000 10000.000 0.000 1.296
88 264.00 1200.01 238 682 1.000 10000.000 0.000 1.296
89 267.00 1200.01 252 612 1.000 10000.000 0.000 1.296
90 270.00 1200.01 242 684 1.000 10000.000 0.000 1.296
91 273.00 1200.01 237 678 1.000 10000.000 0.000 1.296
92 276.00 1200.01 252 744 1.000 10000.000 0.000 1.296
93 279.00 1200.01 253 707 1.000 10000.000 0.000 1.296
94 282.00 1200.01 303 811 1.000 10000.000 0.000 1.296
95 285.00 1200.01 295 794 1.000 10000.000 0.000 1.296
96 288.00 1200.01 295 869 1.000 10000.000 0.000 1.296
97 291.00 1200.01 330 878 1.000 10000.000 0.000 1.296
98 294.00 1200.01 310 983 1.000 10000.000 0.000 1.296
99 297.00 1200.01 330 938 1.000 10000.000 0.000 1.296
100 300.00 1200.01 274 804 1.000 10000.000 0.000 1.296
