# BinNR microsec tot-time (s)  O-Beam AUX Ampl(V) f(Hz) phase(deg) chi(pos)
0 0.00 1500.00 52 111 0.740 10000.000 0.000 0.011
1 3.00 1500.00 84 214 0.740 10000.000 0.000 0.011
2 6.00 1500.00 119 234 0.740 10000.000 0.000 0.011
3 9.00 1500.00 111 231 0.740 10000.000 0.000 0.011
4 12.00 1500.00 99 217 0.740 10000.000 0.000 0.011
5 15.00 1500.00 98 206 0.740 10000.000 0.000 0.011
6 18.00 1500.00 115 211 0.740 10000.000 0.000 0.011
7 21.00 1500.00 122 209 0.740 10000.000 0.000 0.011
8 24.00 1500.00 95 223 0.740 10000.000 0.000 0.011
9 27.00 1500.00 139 187 0.740 10000.000 0.000 0.011
10 30.00 1500.00 121 235 0.740 10000.000 0.000 0.011
11 33.00 1500.00 127 212 0.740 10000.000 0.000 0.011
12 36.00 1500.00 107 186 0.740 10000.000 0.000 0.011
13 39.00 1500.00 87 201 0.740 10000.000 0.000 0.011
14 42.00 1500.00 109 209 0.740 10000.000 0.000 0.011
15 45.00 1500.00 92 217 0.740 10000.000 0.000 0.011
16 48.00 1500.00 126 222 0.740 10000.000 0.000 0.011
17 51.00 1500.00 114 227 0.740 10000.000 0.000 0.011
18 54.00 1500.00 104 211 0.740 10000.000 0.000 0.011
19 57.00 1500.00 98 278 0.740 10000.000 0.000 0.011
20 60.00 1500.00 122 208 0.740 10000.000 0.000 0.011
21 63.00 1500.00 101 216 0.740 10000.000 0.000 0.011
22 66.00 1500.00 108 209 0.740 10000.000 0.000 0.011
23 69.00 1500.00 111 214 0.740 10000.000 0.000 0.011
24 72.00 1500.00 105 209 0.740 10000.000 0.000 0.011
25 75.00 1500.00 88 194 0.740 10000.000 0.000 0.011
26 78.00 1500.00 100 221 0.740 10000.000 0.000 0.011
27 81.00 1500.00 102 187 0.740 10000.000 0.000 0.011
28 84.00 1500.00 98 211 0.740 10000.000 0.000 0.011
29 87.00 1500.00 88 187 0.740 10000.000 0.000 0.011
30 90.00 1500.00 90 216 0.740 10000.000 0.000 0.011
31 93.00 1500.00 104 213 0.740 10000.000 0.000 0.011
32 96.00 1500.00 123 210 0.740 10000.000 0.000 0.011
33 99.00 1500.00 113 220 0.740 10000.000 0.000 0.011
34 102.00 1500.00 112 201 0.740 10000.000 0.000 0.011
35 105.00 1500.00 112 200 0.740 10000.000 0.000 0.011
36 108.00 1500.00 101 209 0.740 10000.000 0.000 0.011
37 111.00 1500.00 102 238 0.740 10000.000 0.000 0.011
38 114.00 1500.00 99 192 0.740 10000.000 0.000 0.011
39 117.00 1500.00 97 200 0.740 10000.000 0.000 0.011
40 120.00 1500.00 102 185 0.740 10000.000 0.000 0.011
41 123.00 1500.00 108 190 0.740 10000.000 0.000 0.011
42 126.00 1500.00 121 230 0.740 10000.000 0.000 0.011
43 129.00 1500.00 106 194 0.740 10000.000 0.000 0.011
44 132.00 1500.00 111 216 0.740 10000.000 0.000 0.011
45 135.00 1500.00 96 207 0.740 10000.000 0.000 0.011
46 138.00 1500.00 96 207 0.740 10000.000 0.000 0.011
47 141.00 1500.00 123 249 0.740 10000.000 0.000 0.011
48 144.00 1500.00 112 236 0.740 10000.000 0.000 0.011
49 147.00 1500.00 95 249 0.740 10000.000 0.000 0.011
50 150.00 1500.00 98 242 0.740 10000.000 0.000 0.011
51 153.00 1500.00 73 235 0.740 10000.000 0.000 0.011
52 156.00 1500.00 114 257 0.740 10000.000 0.000 0.011
53 159.00 1500.00 100 209 0.740 10000.000 0.000 0.011
54 162.00 1500.00 94 212 0.740 10000.000 0.000 0.011
55 165.00 1500.00 90 207 0.740 10000.000 0.000 0.011
56 168.00 1500.00 93 198 0.740 10000.000 0.000 0.011
57 171.00 1500.00 97 201 0.740 10000.000 0.000 0.011
58 174.00 1500.00 99 208 0.740 10000.000 0.000 0.011
59 177.00 1500.00 93 228 0.740 10000.000 0.000 0.011
60 180.00 1500.00 103 250 0.740 10000.000 0.000 0.011
61 183.00 1500.00 114 220 0.740 10000.000 0.000 0.011
62 186.00 1500.00 93 194 0.740 10000.000 0.000 0.011
63 189.00 1500.00 79 199 0.740 10000.000 0.000 0.011
64 192.00 1500.00 112 207 0.740 10000.000 0.000 0.011
65 195.00 1500.00 119 231 0.740 10000.000 0.000 0.011
66 198.00 1500.00 117 218 0.740 10000.000 0.000 0.011
67 201.00 1500.00 88 204 0.740 10000.000 0.000 0.011
68 204.00 1500.00 118 209 0.740 10000.000 0.000 0.011
69 207.00 1500.00 90 212 0.740 10000.000 0.000 0.011
70 210.00 1500.00 95 217 0.740 10000.000 0.000 0.011
71 213.00 1500.00 102 186 0.740 10000.000 0.000 0.011
72 216.00 1500.00 117 210 0.740 10000.000 0.000 0.011
73 219.00 1500.00 86 221 0.740 10000.000 0.000 0.011
74 222.00 1500.00 107 205 0.740 10000.000 0.000 0.011
75 225.00 1500.00 97 226 0.740 10000.000 0.000 0.011
76 228.00 1500.00 111 245 0.740 10000.000 0.000 0.011
77 231.00 1500.00 78 199 0.740 10000.000 0.000 0.011
78 234.00 1500.00 103 219 0.740 10000.000 0.000 0.011
79 237.00 1500.00 117 238 0.740 10000.000 0.000 0.011
80 240.00 1500.00 109 232 0.740 10000.000 0.000 0.011
81 243.00 1500.00 105 210 0.740 10000.000 0.000 0.011
82 246.00 1500.00 98 242 0.740 10000.000 0.000 0.011
83 249.00 1500.00 91 258 0.740 10000.000 0.000 0.011
84 252.00 1500.00 118 239 0.740 10000.000 0.000 0.011
85 255.00 1500.00 125 237 0.740 10000.000 0.000 0.011
86 258.00 1500.00 104 232 0.740 10000.000 0.000 0.011
87 261.00 1500.00 93 221 0.740 10000.000 0.000 0.011
88 264.00 1500.00 108 210 0.740 10000.000 0.000 0.011
89 267.00 1500.00 93 244 0.740 10000.000 0.000 0.011
90 270.00 1500.00 95 210 0.740 10000.000 0.000 0.011
91 273.00 1500.00 85 220 0.740 10000.000 0.000 0.011
92 276.00 1500.00 90 218 0.740 10000.000 0.000 0.011
93 279.00 1500.00 94 206 0.740 10000.000 0.000 0.011
94 282.00 1500.00 99 213 0.740 10000.000 0.000 0.011
95 285.00 1500.00 115 203 0.740 10000.000 0.000 0.011
96 288.00 1500.00 120 198 0.740 10000.000 0.000 0.011
97 291.00 1500.00 92 211 0.740 10000.000 0.000 0.011
98 294.00 1500.00 117 220 0.740 10000.000 0.000 0.011
99 297.00 1500.00 94 220 0.740 10000.000 0.000 0.011
100 300.00 1500.00 97 225 0.740 10000.000 0.000 0.011
101 303.00 1500.00 99 191 0.740 10000.000 0.000 0.011
102 306.00 1500.00 114 183 0.740 10000.000 0.000 0.011
103 309.00 1500.00 96 220 0.740 10000.000 0.000 0.011
104 312.00 1500.00 94 208 0.740 10000.000 0.000 0.011
105 315.00 1500.00 108 225 0.740 10000.000 0.000 0.011
106 318.00 1500.00 120 187 0.740 10000.000 0.000 0.011
107 321.00 1500.00 95 209 0.740 10000.000 0.000 0.011
108 324.00 1500.00 96 207 0.740 10000.000 0.000 0.011
109 327.00 1500.00 108 198 0.740 10000.000 0.000 0.011
110 330.00 1500.00 99 242 0.740 10000.000 0.000 0.011
111 333.00 1500.00 106 218 0.740 10000.000 0.000 0.011
112 336.00 1500.00 105 224 0.740 10000.000 0.000 0.011
113 339.00 1500.00 84 245 0.740 10000.000 0.000 0.011
114 342.00 1500.00 95 250 0.740 10000.000 0.000 0.011
115 345.00 1500.00 102 237 0.740 10000.000 0.000 0.011
116 348.00 1500.00 112 235 0.740 10000.000 0.000 0.011
117 351.00 1500.00 98 224 0.740 10000.000 0.000 0.011
118 354.00 1500.00 97 232 0.740 10000.000 0.000 0.011
119 357.00 1500.00 116 239 0.740 10000.000 0.000 0.011
120 360.00 1500.00 108 236 0.740 10000.000 0.000 0.011
121 363.00 1500.00 109 240 0.740 10000.000 0.000 0.011
122 366.00 1500.00 108 244 0.740 10000.000 0.000 0.011
123 369.00 1500.00 109 184 0.740 10000.000 0.000 0.011
124 372.00 1500.00 93 227 0.740 10000.000 0.000 0.011
125 375.00 1500.00 111 199 0.740 10000.000 0.000 0.011
126 378.00 1500.00 101 242 0.740 10000.000 0.000 0.011
127 381.00 1500.00 110 200 0.740 10000.000 0.000 0.011
128 384.00 1500.00 111 238 0.740 10000.000 0.000 0.011
129 387.00 1500.00 105 211 0.740 10000.000 0.000 0.011
130 390.00 1500.00 121 202 0.740 10000.000 0.000 0.011
131 393.00 1500.00 111 206 0.740 10000.000 0.000 0.011
132 396.00 1500.00 99 203 0.740 10000.000 0.000 0.011
133 399.00 1500.00 98 197 0.740 10000.000 0.000 0.011
134 402.00 1500.00 110 211 0.740 10000.000 0.000 0.011
135 405.00 1500.00 108 205 0.740 10000.000 0.000 0.011
136 408.00 1500.00 78 226 0.740 10000.000 0.000 0.011
137 411.00 1500.00 117 200 0.740 10000.000 0.000 0.011
138 414.00 1500.00 125 224 0.740 10000.000 0.000 0.011
139 417.00 1500.00 122 222 0.740 10000.000 0.000 0.011
140 420.00 1500.00 98 229 0.740 10000.000 0.000 0.011
141 423.00 1500.00 105 209 0.740 10000.000 0.000 0.011
142 426.00 1500.00 108 205 0.740 10000.000 0.000 0.011
143 429.00 1500.00 117 227 0.740 10000.000 0.000 0.011
144 432.00 1500.00 119 219 0.740 10000.000 0.000 0.011
