# BinNR microsec tot-time (s)  O-Beam AUX Ampl(V) f(Hz) phase(deg) chi(pos)
0 0.00 1500.00 56 113 0.740 10000.000 0.000 -0.341
1 3.00 1500.00 128 256 0.740 10000.000 0.000 -0.341
2 6.00 1500.00 139 243 0.740 10000.000 0.000 -0.341
3 9.00 1500.00 129 260 0.740 10000.000 0.000 -0.341
4 12.00 1500.00 147 253 0.740 10000.000 0.000 -0.341
5 15.00 1500.00 128 233 0.740 10000.000 0.000 -0.341
6 18.00 1500.00 148 247 0.740 10000.000 0.000 -0.341
7 21.00 1500.00 134 290 0.740 10000.000 0.000 -0.341
8 24.00 1500.00 134 283 0.740 10000.000 0.000 -0.341
9 27.00 1500.00 167 293 0.740 10000.000 0.000 -0.341
10 30.00 1500.00 153 298 0.740 10000.000 0.000 -0.341
11 33.00 1500.00 169 303 0.740 10000.000 0.000 -0.341
12 36.00 1500.00 134 287 0.740 10000.000 0.000 -0.341
13 39.00 1500.00 170 297 0.740 10000.000 0.000 -0.341
14 42.00 1500.00 150 315 0.740 10000.000 0.000 -0.341
15 45.00 1500.00 163 268 0.740 10000.000 0.000 -0.341
16 48.00 1500.00 150 263 0.740 10000.000 0.000 -0.341
17 51.00 1500.00 137 261 0.740 10000.000 0.000 -0.341
18 54.00 1500.00 156 266 0.740 10000.000 0.000 -0.341
19 57.00 1500.00 150 280 0.740 10000.000 0.000 -0.341
20 60.00 1500.00 141 261 0.740 10000.000 0.000 -0.341
21 63.00 1500.00 128 244 0.740 10000.000 0.000 -0.341
22 66.00 1500.00 142 293 0.740 10000.000 0.000 -0.341
23 69.00 1500.00 121 273 0.740 10000.000 0.000 -0.341
24 72.00 1500.00 140 309 0.740 10000.000 0.000 -0.341
25 75.00 1500.00 128 293 0.740 10000.000 0.000 -0.341
26 78.00 1500.00 110 288 0.740 10000.000 0.000 -0.341
27 81.00 1500.00 109 322 0.740 10000.000 0.000 -0.341
28 84.00 1500.00 121 324 0.740 10000.000 0.000 -0.341
29 87.00 1500.00 115 317 0.740 10000.000 0.000 -0.341
30 90.00 1500.00 111 365 0.740 10000.000 0.000 -0.341
31 93.00 1500.00 144 386 0.740 10000.000 0.000 -0.341
32 96.00 1500.00 101 336 0.740 10000.000 0.000 -0.341
33 99.00 1500.00 124 370 0.740 10000.000 0.000 -0.341
34 102.00 1500.00 127 378 0.740 10000.000 0.000 -0.341
35 105.00 1500.00 133 324 0.740 10000.000 0.000 -0.341
36 108.00 1500.00 145 310 0.740 10000.000 0.000 -0.341
37 111.00 1500.00 150 344 0.740 10000.000 0.000 -0.341
38 114.00 1500.00 152 325 0.740 10000.000 0.000 -0.341
39 117.00 1500.00 122 279 0.740 10000.000 0.000 -0.341
40 120.00 1500.00 164 319 0.740 10000.000 0.000 -0.341
41 123.00 1500.00 146 292 0.740 10000.000 0.000 -0.341
42 126.00 1500.00 164 265 0.740 10000.000 0.000 -0.341
43 129.00 1500.00 165 243 0.740 10000.000 0.000 -0.341
44 132.00 1500.00 164 277 0.740 10000.000 0.000 -0.341
45 135.00 1500.00 154 254 0.740 10000.000 0.000 -0.341
46 138.00 1500.00 159 253 0.740 10000.000 0.000 -0.341
47 141.00 1500.00 165 234 0.740 10000.000 0.000 -0.341
48 144.00 1500.00 169 220 0.740 10000.000 0.000 -0.341
49 147.00 1500.00 157 209 0.740 10000.000 0.000 -0.341
50 150.00 1500.00 145 244 0.740 10000.000 0.000 -0.341
51 153.00 1500.00 139 260 0.740 10000.000 0.000 -0.341
52 156.00 1500.00 147 262 0.740 10000.000 0.000 -0.341
53 159.00 1500.00 130 230 0.740 10000.000 0.000 -0.341
54 162.00 1500.00 136 268 0.740 10000.000 0.000 -0.341
55 165.00 1500.00 139 260 0.740 10000.000 0.000 -0.341
56 168.00 1500.00 144 296 0.740 10000.000 0.000 -0.341
57 171.00 1500.00 110 273 0.740 10000.000 0.000 -0.341
58 174.00 1500.00 142 304 0.740 10000.000 0.000 -0.341
59 177.00 1500.00 102 345 0.740 10000.000 0.000 -0.341
60 180.00 1500.00 131 314 0.740 10000.000 0.000 -0.341
61 183.00 1500.00 116 299 0.740 10000.000 0.000 -0.341
62 186.00 1500.00 131 335 0.740 10000.000 0.000 -0.341
63 189.00 1500.00 114 339 0.740 10000.000 0.000 -0.341
64 192.00 1500.00 128 362 0.740 10000.000 0.000 -0.341
65 195.00 1500.00 118 362 0.740 10000.000 0.000 -0.341
66 198.00 1500.00 119 351 0.740 10000.000 0.000 -0.341
67 201.00 1500.00 138 343 0.740 10000.000 0.000 -0.341
68 204.00 1500.00 126 355 0.740 10000.000 0.000 -0.341
69 207.00 1500.00 126 345 0.740 10000.000 0.000 -0.341
70 210.00 1500.00 139 352 0.740 10000.000 0.000 -0.341
71 213.00 1500.00 158 304 0.740 10000.000 0.000 -0.341
72 216.00 1500.00 122 314 0.740 10000.000 0.000 -0.341
73 219.00 1500.00 149 295 0.740 10000.000 0.000 -0.341
74 222.00 1500.00 158 321 0.740 10000.000 0.000 -0.341
75 225.00 1500.00 148 312 0.740 10000.000 0.000 -0.341
76 228.00 1500.00 144 260 0.740 10000.000 0.000 -0.341
77 231.00 1500.00 158 237 0.740 10000.000 0.000 -0.341
78 234.00 1500.00 143 275 0.740 10000.000 0.000 -0.341
79 237.00 1500.00 132 200 0.740 10000.000 0.000 -0.341
80 240.00 1500.00 158 240 0.740 10000.000 0.000 -0.341
81 243.00 1500.00 143 244 0.740 10000.000 0.000 -0.341
82 246.00 1500.00 160 238 0.740 10000.000 0.000 -0.341
83 249.00 1500.00 131 227 0.740 10000.000 0.000 -0.341
84 252.00 1500.00 143 238 0.740 10000.000 0.000 -0.341
85 255.00 1500.00 139 241 0.740 10000.000 0.000 -0.341
86 258.00 1500.00 143 239 0.740 10000.000 0.000 -0.341
87 261.00 1500.00 109 242 0.740 10000.000 0.000 -0.341
88 264.00 1500.00 131 247 0.740 10000.000 0.000 -0.341
89 267.00 1500.00 119 278 0.740 10000.000 0.000 -0.341
90 270.00 1500.00 113 296 0.740 10000.000 0.000 -0.341
91 273.00 1500.00 116 294 0.740 10000.000 0.000 -0.341
92 276.00 1500.00 145 301 0.740 10000.000 0.000 -0.341
93 279.00 1500.00 113 292 0.740 10000.000 0.000 -0.341
94 282.00 1500.00 127 346 0.740 10000.000 0.000 -0.341
95 285.00 1500.00 113 325 0.740 10000.000 0.000 -0.341
96 288.00 1500.00 149 358 0.740 10000.000 0.000 -0.341
97 291.00 1500.00 142 365 0.740 10000.000 0.000 -0.341
98 294.00 1500.00 127 353 0.740 10000.000 0.000 -0.341
99 297.00 1500.00 135 354 0.740 10000.000 0.000 -0.341
100 300.00 1500.00 122 324 0.740 10000.000 0.000 -0.341
101 303.00 1500.00 142 370 0.740 10000.000 0.000 -0.341
102 306.00 1500.00 125 334 0.740 10000.000 0.000 -0.341
103 309.00 1500.00 149 329 0.740 10000.000 0.000 -0.341
104 312.00 1500.00 116 354 0.740 10000.000 0.000 -0.341
105 315.00 1500.00 135 338 0.740 10000.000 0.000 -0.341
106 318.00 1500.00 146 284 0.740 10000.000 0.000 -0.341
107 321.00 1500.00 134 299 0.740 10000.000 0.000 -0.341
108 324.00 1500.00 147 283 0.740 10000.000 0.000 -0.341
109 327.00 1500.00 115 254 0.740 10000.000 0.000 -0.341
110 330.00 1500.00 148 245 0.740 10000.000 0.000 -0.341
111 333.00 1500.00 108 260 0.740 10000.000 0.000 -0.341
112 336.00 1500.00 126 266 0.740 10000.000 0.000 -0.341
113 339.00 1500.00 126 242 0.740 10000.000 0.000 -0.341
114 342.00 1500.00 140 205 0.740 10000.000 0.000 -0.341
115 345.00 1500.00 141 240 0.740 10000.000 0.000 -0.341
116 348.00 1500.00 135 269 0.740 10000.000 0.000 -0.341
117 351.00 1500.00 130 266 0.740 10000.000 0.000 -0.341
118 354.00 1500.00 143 237 0.740 10000.000 0.000 -0.341
119 357.00 1500.00 153 226 0.740 10000.000 0.000 -0.341
120 360.00 1500.00 161 267 0.740 10000.000 0.000 -0.341
121 363.00 1500.00 165 259 0.740 10000.000 0.000 -0.341
122 366.00 1500.00 156 251 0.740 10000.000 0.000 -0.341
123 369.00 1500.00 130 254 0.740 10000.000 0.000 -0.341
124 372.00 1500.00 136 267 0.740 10000.000 0.000 -0.341
125 375.00 1500.00 171 311 0.740 10000.000 0.000 -0.341
126 378.00 1500.00 143 317 0.740 10000.000 0.000 -0.341
127 381.00 1500.00 158 299 0.740 10000.000 0.000 -0.341
128 384.00 1500.00 152 343 0.740 10000.000 0.000 -0.341
129 387.00 1500.00 158 327 0.740 10000.000 0.000 -0.341
130 390.00 1500.00 121 344 0.740 10000.000 0.000 -0.341
131 393.00 1500.00 124 337 0.740 10000.000 0.000 -0.341
132 396.00 1500.00 141 367 0.740 10000.000 0.000 -0.341
133 399.00 1500.00 138 363 0.740 10000.000 0.000 -0.341
134 402.00 1500.00 129 368 0.740 10000.000 0.000 -0.341
135 405.00 1500.00 129 355 0.740 10000.000 0.000 -0.341
136 408.00 1500.00 114 346 0.740 10000.000 0.000 -0.341
137 411.00 1500.00 127 333 0.740 10000.000 0.000 -0.341
138 414.00 1500.00 121 315 0.740 10000.000 0.000 -0.341
139 417.00 1500.00 134 301 0.740 10000.000 0.000 -0.341
140 420.00 1500.00 115 298 0.740 10000.000 0.000 -0.341
141 423.00 1500.00 123 289 0.740 10000.000 0.000 -0.341
142 426.00 1500.00 133 293 0.740 10000.000 0.000 -0.341
143 429.00 1500.00 124 261 0.740 10000.000 0.000 -0.341
144 432.00 1500.00 136 232 0.740 10000.000 0.000 -0.341
