# BinNR microsec tot-time (s)  O-Beam AUX Ampl(V) f(Hz) phase(deg) chi(pos)
0 0.00 1500.01 46 116 0.740 10000.000 0.000 -0.165
1 3.00 1500.01 120 182 0.740 10000.000 0.000 -0.165
2 6.00 1500.01 118 206 0.740 10000.000 0.000 -0.165
3 9.00 1500.01 89 208 0.740 10000.000 0.000 -0.165
4 12.00 1500.01 102 217 0.740 10000.000 0.000 -0.165
5 15.00 1500.01 106 220 0.740 10000.000 0.000 -0.165
6 18.00 1500.01 124 236 0.740 10000.000 0.000 -0.165
7 21.00 1500.01 128 191 0.740 10000.000 0.000 -0.165
8 24.00 1500.01 111 217 0.740 10000.000 0.000 -0.165
9 27.00 1500.01 116 212 0.740 10000.000 0.000 -0.165
10 30.00 1500.01 108 235 0.740 10000.000 0.000 -0.165
11 33.00 1500.01 110 224 0.740 10000.000 0.000 -0.165
12 36.00 1500.01 111 182 0.740 10000.000 0.000 -0.165
13 39.00 1500.01 132 221 0.740 10000.000 0.000 -0.165
14 42.00 1500.01 111 210 0.740 10000.000 0.000 -0.165
15 45.00 1500.01 115 218 0.740 10000.000 0.000 -0.165
16 48.00 1500.01 118 223 0.740 10000.000 0.000 -0.165
17 51.00 1500.01 100 229 0.740 10000.000 0.000 -0.165
18 54.00 1500.01 110 200 0.740 10000.000 0.000 -0.165
19 57.00 1500.01 110 233 0.740 10000.000 0.000 -0.165
20 60.00 1500.01 121 240 0.740 10000.000 0.000 -0.165
21 63.00 1500.01 96 182 0.740 10000.000 0.000 -0.165
22 66.00 1500.01 103 205 0.740 10000.000 0.000 -0.165
23 69.00 1500.01 106 217 0.740 10000.000 0.000 -0.165
24 72.00 1500.01 104 221 0.740 10000.000 0.000 -0.165
25 75.00 1500.01 107 233 0.740 10000.000 0.000 -0.165
26 78.00 1500.01 114 238 0.740 10000.000 0.000 -0.165
27 81.00 1500.01 104 251 0.740 10000.000 0.000 -0.165
28 84.00 1500.01 116 253 0.740 10000.000 0.000 -0.165
29 87.00 1500.01 106 230 0.740 10000.000 0.000 -0.165
30 90.00 1500.01 137 286 0.740 10000.000 0.000 -0.165
31 93.00 1500.01 102 274 0.740 10000.000 0.000 -0.165
32 96.00 1500.01 87 274 0.740 10000.000 0.000 -0.165
33 99.00 1500.01 94 237 0.740 10000.000 0.000 -0.165
34 102.00 1500.01 119 273 0.740 10000.000 0.000 -0.165
35 105.00 1500.01 89 267 0.740 10000.000 0.000 -0.165
36 108.00 1500.01 118 225 0.740 10000.000 0.000 -0.165
37 111.00 1500.01 113 269 0.740 10000.000 0.000 -0.165
38 114.00 1500.01 112 212 0.740 10000.000 0.000 -0.165
39 117.00 1500.01 116 234 0.740 10000.000 0.000 -0.165
40 120.00 1500.01 119 245 0.740 10000.000 0.000 -0.165
41 123.00 1500.01 101 204 0.740 10000.000 0.000 -0.165
42 126.00 1500.01 133 212 0.740 10000.000 0.000 -0.165
43 129.00 1500.01 127 202 0.740 10000.000 0.000 -0.165
44 132.00 1500.01 116 231 0.740 10000.000 0.000 -0.165
45 135.00 1500.01 108 199 0.740 10000.000 0.000 -0.165
46 138.00 1500.01 131 206 0.740 10000.000 0.000 -0.165
47 141.00 1500.01 119 205 0.740 10000.000 0.000 -0.165
48 144.00 1500.01 124 230 0.740 10000.000 0.000 -0.165
49 147.00 1500.01 125 235 0.740 10000.000 0.000 -0.165
50 150.00 1500.01 118 222 0.740 10000.000 0.000 -0.165
51 153.00 1500.01 123 211 0.740 10000.000 0.000 -0.165
52 156.00 1500.01 107 241 0.740 10000.000 0.000 -0.165
53 159.00 1500.01 82 174 0.740 10000.000 0.000 -0.165
54 162.00 1500.01 103 204 0.740 10000.000 0.000 -0.165
55 165.00 1500.01 102 198 0.740 10000.000 0.000 -0.165
56 168.00 1500.01 98 221 0.740 10000.000 0.000 -0.165
57 171.00 1500.01 119 210 0.740 10000.000 0.000 -0.165
58 174.00 1500.01 93 234 0.740 10000.000 0.000 -0.165
59 177.00 1500.01 112 231 0.740 10000.000 0.000 -0.165
60 180.00 1500.01 108 216 0.740 10000.000 0.000 -0.165
61 183.00 1500.01 114 234 0.740 10000.000 0.000 -0.165
62 186.00 1500.01 107 249 0.740 10000.000 0.000 -0.165
63 189.00 1500.01 101 233 0.740 10000.000 0.000 -0.165
64 192.00 1500.01 114 248 0.740 10000.000 0.000 -0.165
65 195.00 1500.01 100 243 0.740 10000.000 0.000 -0.165
66 198.00 1500.01 110 249 0.740 10000.000 0.000 -0.165
67 201.00 1500.01 109 254 0.740 10000.000 0.000 -0.165
68 204.00 1500.01 126 264 0.740 10000.000 0.000 -0.165
69 207.00 1500.01 116 226 0.740 10000.000 0.000 -0.165
70 210.00 1500.01 119 249 0.740 10000.000 0.000 -0.165
71 213.00 1500.01 138 217 0.740 10000.000 0.000 -0.165
72 216.00 1500.01 123 249 0.740 10000.000 0.000 -0.165
73 219.00 1500.01 125 199 0.740 10000.000 0.000 -0.165
74 222.00 1500.01 149 200 0.740 10000.000 0.000 -0.165
75 225.00 1500.01 116 228 0.740 10000.000 0.000 -0.165
76 228.00 1500.01 141 224 0.740 10000.000 0.000 -0.165
77 231.00 1500.01 116 199 0.740 10000.000 0.000 -0.165
78 234.00 1500.01 133 192 0.740 10000.000 0.000 -0.165
79 237.00 1500.01 105 187 0.740 10000.000 0.000 -0.165
80 240.00 1500.01 133 185 0.740 10000.000 0.000 -0.165
81 243.00 1500.01 154 207 0.740 10000.000 0.000 -0.165
82 246.00 1500.01 110 199 0.740 10000.000 0.000 -0.165
83 249.00 1500.01 137 201 0.740 10000.000 0.000 -0.165
84 252.00 1500.01 122 192 0.740 10000.000 0.000 -0.165
85 255.00 1500.01 100 193 0.740 10000.000 0.000 -0.165
86 258.00 1500.01 112 218 0.740 10000.000 0.000 -0.165
87 261.00 1500.01 124 215 0.740 10000.000 0.000 -0.165
88 264.00 1500.01 112 224 0.740 10000.000 0.000 -0.165
89 267.00 1500.01 85 206 0.740 10000.000 0.000 -0.165
90 270.00 1500.01 99 227 0.740 10000.000 0.000 -0.165
91 273.00 1500.01 103 210 0.740 10000.000 0.000 -0.165
92 276.00 1500.01 99 232 0.740 10000.000 0.000 -0.165
93 279.00 1500.01 91 217 0.740 10000.000 0.000 -0.165
94 282.00 1500.01 91 269 0.740 10000.000 0.000 -0.165
95 285.00 1500.01 111 255 0.740 10000.000 0.000 -0.165
96 288.00 1500.01 92 256 0.740 10000.000 0.000 -0.165
97 291.00 1500.01 115 236 0.740 10000.000 0.000 -0.165
98 294.00 1500.01 91 273 0.740 10000.000 0.000 -0.165
99 297.00 1500.01 109 244 0.740 10000.000 0.000 -0.165
100 300.00 1500.01 126 250 0.740 10000.000 0.000 -0.165
101 303.00 1500.01 118 265 0.740 10000.000 0.000 -0.165
102 306.00 1500.01 99 260 0.740 10000.000 0.000 -0.165
103 309.00 1500.01 119 247 0.740 10000.000 0.000 -0.165
104 312.00 1500.01 103 222 0.740 10000.000 0.000 -0.165
105 315.00 1500.01 102 225 0.740 10000.000 0.000 -0.165
106 318.00 1500.01 121 239 0.740 10000.000 0.000 -0.165
107 321.00 1500.01 113 227 0.740 10000.000 0.000 -0.165
108 324.00 1500.01 114 212 0.740 10000.000 0.000 -0.165
109 327.00 1500.01 109 235 0.740 10000.000 0.000 -0.165
110 330.00 1500.01 124 220 0.740 10000.000 0.000 -0.165
111 333.00 1500.01 111 207 0.740 10000.000 0.000 -0.165
112 336.00 1500.01 100 214 0.740 10000.000 0.000 -0.165
113 339.00 1500.01 97 209 0.740 10000.000 0.000 -0.165
114 342.00 1500.01 107 221 0.740 10000.000 0.000 -0.165
115 345.00 1500.01 107 216 0.740 10000.000 0.000 -0.165
116 348.00 1500.01 102 201 0.740 10000.000 0.000 -0.165
117 351.00 1500.01 112 227 0.740 10000.000 0.000 -0.165
118 354.00 1500.01 116 188 0.740 10000.000 0.000 -0.165
119 357.00 1500.01 91 217 0.740 10000.000 0.000 -0.165
120 360.00 1500.01 120 201 0.740 10000.000 0.000 -0.165
121 363.00 1500.01 118 219 0.740 10000.000 0.000 -0.165
122 366.00 1500.01 101 201 0.740 10000.000 0.000 -0.165
123 369.00 1500.01 119 215 0.740 10000.000 0.000 -0.165
124 372.00 1500.01 117 249 0.740 10000.000 0.000 -0.165
125 375.00 1500.01 119 232 0.740 10000.000 0.000 -0.165
126 378.00 1500.01 123 228 0.740 10000.000 0.000 -0.165
127 381.00 1500.01 135 247 0.740 10000.000 0.000 -0.165
128 384.00 1500.01 124 238 0.740 10000.000 0.000 -0.165
129 387.00 1500.01 97 263 0.740 10000.000 0.000 -0.165
130 390.00 1500.01 137 244 0.740 10000.000 0.000 -0.165
131 393.00 1500.01 115 233 0.740 10000.000 0.000 -0.165
132 396.00 1500.01 103 279 0.740 10000.000 0.000 -0.165
133 399.00 1500.01 104 257 0.740 10000.000 0.000 -0.165
134 402.00 1500.01 104 247 0.740 10000.000 0.000 -0.165
135 405.00 1500.01 101 241 0.740 10000.000 0.000 -0.165
136 408.00 1500.01 100 250 0.740 10000.000 0.000 -0.165
137 411.00 1500.01 119 234 0.740 10000.000 0.000 -0.165
138 414.00 1500.01 113 232 0.740 10000.000 0.000 -0.165
139 417.00 1500.01 106 213 0.740 10000.000 0.000 -0.165
140 420.00 1500.01 117 253 0.740 10000.000 0.000 -0.165
141 423.00 1500.01 110 193 0.740 10000.000 0.000 -0.165
142 426.00 1500.01 119 196 0.740 10000.000 0.000 -0.165
143 429.00 1500.01 111 220 0.740 10000.000 0.000 -0.165
144 432.00 1500.01 100 204 0.740 10000.000 0.000 -0.165
