# BinNR microsec tot-time (s)  O-Beam AUX Ampl(V) f(Hz) phase(deg) chi(pos)
0 0.00 1500.03 72 221 0.740 10000.000 0.000 -1.494
1 3.00 1500.03 138 455 0.740 10000.000 0.000 -1.494
2 6.00 1500.03 147 431 0.740 10000.000 0.000 -1.494
3 9.00 1500.03 136 415 0.740 10000.000 0.000 -1.494
4 12.00 1500.03 128 439 0.740 10000.000 0.000 -1.494
5 15.00 1500.03 153 423 0.740 10000.000 0.000 -1.494
6 18.00 1500.03 113 407 0.740 10000.000 0.000 -1.494
7 21.00 1500.03 125 350 0.740 10000.000 0.000 -1.494
8 24.00 1500.03 127 405 0.740 10000.000 0.000 -1.494
9 27.00 1500.03 139 385 0.740 10000.000 0.000 -1.494
10 30.00 1500.03 131 405 0.740 10000.000 0.000 -1.494
11 33.00 1500.03 100 389 0.740 10000.000 0.000 -1.494
12 36.00 1500.03 132 333 0.740 10000.000 0.000 -1.494
13 39.00 1500.03 131 386 0.740 10000.000 0.000 -1.494
14 42.00 1500.03 137 353 0.740 10000.000 0.000 -1.494
15 45.00 1500.03 105 395 0.740 10000.000 0.000 -1.494
16 48.00 1500.03 119 422 0.740 10000.000 0.000 -1.494
17 51.00 1500.03 134 417 0.740 10000.000 0.000 -1.494
18 54.00 1500.03 121 424 0.740 10000.000 0.000 -1.494
19 57.00 1500.03 134 402 0.740 10000.000 0.000 -1.494
20 60.00 1500.03 149 426 0.740 10000.000 0.000 -1.494
21 63.00 1500.03 127 414 0.740 10000.000 0.000 -1.494
22 66.00 1500.03 156 413 0.740 10000.000 0.000 -1.494
23 69.00 1500.03 150 405 0.740 10000.000 0.000 -1.494
24 72.00 1500.03 154 428 0.740 10000.000 0.000 -1.494
25 75.00 1500.03 151 389 0.740 10000.000 0.000 -1.494
26 78.00 1500.03 125 393 0.740 10000.000 0.000 -1.494
27 81.00 1500.03 158 341 0.740 10000.000 0.000 -1.494
28 84.00 1500.03 132 342 0.740 10000.000 0.000 -1.494
29 87.00 1500.03 158 354 0.740 10000.000 0.000 -1.494
30 90.00 1500.03 128 281 0.740 10000.000 0.000 -1.494
31 93.00 1500.03 132 284 0.740 10000.000 0.000 -1.494
32 96.00 1500.03 168 318 0.740 10000.000 0.000 -1.494
33 99.00 1500.03 133 290 0.740 10000.000 0.000 -1.494
34 102.00 1500.03 151 313 0.740 10000.000 0.000 -1.494
35 105.00 1500.03 146 330 0.740 10000.000 0.000 -1.494
36 108.00 1500.03 146 317 0.740 10000.000 0.000 -1.494
37 111.00 1500.03 142 331 0.740 10000.000 0.000 -1.494
38 114.00 1500.03 130 369 0.740 10000.000 0.000 -1.494
39 117.00 1500.03 144 346 0.740 10000.000 0.000 -1.494
40 120.00 1500.03 117 361 0.740 10000.000 0.000 -1.494
41 123.00 1500.03 128 357 0.740 10000.000 0.000 -1.494
42 126.00 1500.03 143 395 0.740 10000.000 0.000 -1.494
43 129.00 1500.03 125 425 0.740 10000.000 0.000 -1.494
44 132.00 1500.03 104 437 0.740 10000.000 0.000 -1.494
45 135.00 1500.03 134 434 0.740 10000.000 0.000 -1.494
46 138.00 1500.03 112 484 0.740 10000.000 0.000 -1.494
47 141.00 1500.03 124 456 0.740 10000.000 0.000 -1.494
48 144.00 1500.03 139 450 0.740 10000.000 0.000 -1.494
49 147.00 1500.03 120 478 0.740 10000.000 0.000 -1.494
50 150.00 1500.03 106 478 0.740 10000.000 0.000 -1.494
51 153.00 1500.03 143 459 0.740 10000.000 0.000 -1.494
52 156.00 1500.03 137 467 0.740 10000.000 0.000 -1.494
53 159.00 1500.03 161 434 0.740 10000.000 0.000 -1.494
54 162.00 1500.03 145 464 0.740 10000.000 0.000 -1.494
55 165.00 1500.03 146 394 0.740 10000.000 0.000 -1.494
56 168.00 1500.03 145 434 0.740 10000.000 0.000 -1.494
57 171.00 1500.03 154 403 0.740 10000.000 0.000 -1.494
58 174.00 1500.03 162 361 0.740 10000.000 0.000 -1.494
59 177.00 1500.03 165 350 0.740 10000.000 0.000 -1.494
60 180.00 1500.03 160 359 0.740 10000.000 0.000 -1.494
61 183.00 1500.03 143 316 0.740 10000.000 0.000 -1.494
62 186.00 1500.03 156 325 0.740 10000.000 0.000 -1.494
63 189.00 1500.03 175 335 0.740 10000.000 0.000 -1.494
64 192.00 1500.03 153 364 0.740 10000.000 0.000 -1.494
65 195.00 1500.03 145 313 0.740 10000.000 0.000 -1.494
66 198.00 1500.03 145 303 0.740 10000.000 0.000 -1.494
67 201.00 1500.03 150 322 0.740 10000.000 0.000 -1.494
68 204.00 1500.03 149 305 0.740 10000.000 0.000 -1.494
69 207.00 1500.03 138 301 0.740 10000.000 0.000 -1.494
70 210.00 1500.03 119 334 0.740 10000.000 0.000 -1.494
71 213.00 1500.03 135 329 0.740 10000.000 0.000 -1.494
72 216.00 1500.03 135 387 0.740 10000.000 0.000 -1.494
73 219.00 1500.03 110 373 0.740 10000.000 0.000 -1.494
74 222.00 1500.03 138 383 0.740 10000.000 0.000 -1.494
75 225.00 1500.03 105 399 0.740 10000.000 0.000 -1.494
76 228.00 1500.03 129 426 0.740 10000.000 0.000 -1.494
77 231.00 1500.03 116 423 0.740 10000.000 0.000 -1.494
78 234.00 1500.03 113 474 0.740 10000.000 0.000 -1.494
79 237.00 1500.03 109 454 0.740 10000.000 0.000 -1.494
80 240.00 1500.03 106 441 0.740 10000.000 0.000 -1.494
81 243.00 1500.03 127 424 0.740 10000.000 0.000 -1.494
82 246.00 1500.03 137 423 0.740 10000.000 0.000 -1.494
83 249.00 1500.03 135 494 0.740 10000.000 0.000 -1.494
84 252.00 1500.03 132 471 0.740 10000.000 0.000 -1.494
85 255.00 1500.03 134 454 0.740 10000.000 0.000 -1.494
86 258.00 1500.03 115 452 0.740 10000.000 0.000 -1.494
87 261.00 1500.03 128 423 0.740 10000.000 0.000 -1.494
88 264.00 1500.03 129 462 0.740 10000.000 0.000 -1.494
89 267.00 1500.03 124 384 0.740 10000.000 0.000 -1.494
90 270.00 1500.03 123 394 0.740 10000.000 0.000 -1.494
91 273.00 1500.03 143 390 0.740 10000.000 0.000 -1.494
92 276.00 1500.03 148 369 0.740 10000.000 0.000 -1.494
93 279.00 1500.03 143 345 0.740 10000.000 0.000 -1.494
94 282.00 1500.03 147 340 0.740 10000.000 0.000 -1.494
95 285.00 1500.03 148 329 0.740 10000.000 0.000 -1.494
96 288.00 1500.03 133 318 0.740 10000.000 0.000 -1.494
97 291.00 1500.03 125 312 0.740 10000.000 0.000 -1.494
98 294.00 1500.03 145 315 0.740 10000.000 0.000 -1.494
99 297.00 1500.03 126 310 0.740 10000.000 0.000 -1.494
100 300.00 1500.03 160 281 0.740 10000.000 0.000 -1.494
101 303.00 1500.03 144 292 0.740 10000.000 0.000 -1.494
102 306.00 1500.03 121 305 0.740 10000.000 0.000 -1.494
103 309.00 1500.03 132 326 0.740 10000.000 0.000 -1.494
104 312.00 1500.03 165 357 0.740 10000.000 0.000 -1.494
105 315.00 1500.03 120 330 0.740 10000.000 0.000 -1.494
106 318.00 1500.03 161 362 0.740 10000.000 0.000 -1.494
107 321.00 1500.03 154 385 0.740 10000.000 0.000 -1.494
108 324.00 1500.03 154 367 0.740 10000.000 0.000 -1.494
109 327.00 1500.03 136 380 0.740 10000.000 0.000 -1.494
110 330.00 1500.03 131 447 0.740 10000.000 0.000 -1.494
111 333.00 1500.03 150 426 0.740 10000.000 0.000 -1.494
112 336.00 1500.03 136 459 0.740 10000.000 0.000 -1.494
113 339.00 1500.03 125 468 0.740 10000.000 0.000 -1.494
114 342.00 1500.03 147 449 0.740 10000.000 0.000 -1.494
115 345.00 1500.03 129 475 0.740 10000.000 0.000 -1.494
116 348.00 1500.03 123 448 0.740 10000.000 0.000 -1.494
117 351.00 1500.03 136 444 0.740 10000.000 0.000 -1.494
118 354.00 1500.03 139 443 0.740 10000.000 0.000 -1.494
119 357.00 1500.03 122 440 0.740 10000.000 0.000 -1.494
120 360.00 1500.03 129 405 0.740 10000.000 0.000 -1.494
121 363.00 1500.03 131 459 0.740 10000.000 0.000 -1.494
122 366.00 1500.03 124 402 0.740 10000.000 0.000 -1.494
123 369.00 1500.03 116 471 0.740 10000.000 0.000 -1.494
124 372.00 1500.03 127 386 0.740 10000.000 0.000 -1.494
125 375.00 1500.03 133 391 0.740 10000.000 0.000 -1.494
126 378.00 1500.03 125 330 0.740 10000.000 0.000 -1.494
127 381.00 1500.03 120 373 0.740 10000.000 0.000 -1.494
128 384.00 1500.03 123 337 0.740 10000.000 0.000 -1.494
129 387.00 1500.03 121 324 0.740 10000.000 0.000 -1.494
130 390.00 1500.03 123 311 0.740 10000.000 0.000 -1.494
131 393.00 1500.03 141 288 0.740 10000.000 0.000 -1.494
132 396.00 1500.03 133 272 0.740 10000.000 0.000 -1.494
133 399.00 1500.03 161 313 0.740 10000.000 0.000 -1.494
134 402.00 1500.03 154 308 0.740 10000.000 0.000 -1.494
135 405.00 1500.03 134 334 0.740 10000.000 0.000 -1.494
136 408.00 1500.03 145 299 0.740 10000.000 0.000 -1.494
137 411.00 1500.03 138 322 0.740 10000.000 0.000 -1.494
138 414.00 1500.03 180 363 0.740 10000.000 0.000 -1.494
139 417.00 1500.03 167 330 0.740 10000.000 0.000 -1.494
140 420.00 1500.03 147 374 0.740 10000.000 0.000 -1.494
141 423.00 1500.03 141 412 0.740 10000.000 0.000 -1.494
142 426.00 1500.03 148 397 0.740 10000.000 0.000 -1.494
143 429.00 1500.03 141 370 0.740 10000.000 0.000 -1.494
144 432.00 1500.03 139 422 0.740 10000.000 0.000 -1.494
