# BinNR microsec tot-time (s)  O-Beam AUX Ampl(V) f(Hz) phase(deg) chi(pos)
0 0.00 1500.03 120 359 0.740 10000.000 0.000 -1.176
1 3.00 1500.03 237 668 0.740 10000.000 0.000 -1.176
2 6.00 1500.03 218 736 0.740 10000.000 0.000 -1.176
3 9.00 1500.03 225 683 0.740 10000.000 0.000 -1.176
4 12.00 1500.03 245 686 0.740 10000.000 0.000 -1.176
5 15.00 1500.03 234 645 0.740 10000.000 0.000 -1.176
6 18.00 1500.03 236 707 0.740 10000.000 0.000 -1.176
7 21.00 1500.03 228 676 0.740 10000.000 0.000 -1.176
8 24.00 1500.03 237 642 0.740 10000.000 0.000 -1.176
9 27.00 1500.03 210 683 0.740 10000.000 0.000 -1.176
10 30.00 1500.03 212 696 0.740 10000.000 0.000 -1.176
11 33.00 1500.03 214 670 0.740 10000.000 0.000 -1.176
12 36.00 1500.03 256 720 0.740 10000.000 0.000 -1.176
13 39.00 1500.03 217 680 0.740 10000.000 0.000 -1.176
14 42.00 1500.03 209 775 0.740 10000.000 0.000 -1.176
15 45.00 1500.03 235 731 0.740 10000.000 0.000 -1.176
16 48.00 1500.03 222 707 0.740 10000.000 0.000 -1.176
17 51.00 1500.03 253 640 0.740 10000.000 0.000 -1.176
18 54.00 1500.03 233 693 0.740 10000.000 0.000 -1.176
19 57.00 1500.03 243 704 0.740 10000.000 0.000 -1.176
20 60.00 1500.03 221 684 0.740 10000.000 0.000 -1.176
21 63.00 1500.03 237 665 0.740 10000.000 0.000 -1.176
22 66.00 1500.03 236 727 0.740 10000.000 0.000 -1.176
23 69.00 1500.03 228 701 0.740 10000.000 0.000 -1.176
24 72.00 1500.03 250 696 0.740 10000.000 0.000 -1.176
25 75.00 1500.03 212 678 0.740 10000.000 0.000 -1.176
26 78.00 1500.03 251 691 0.740 10000.000 0.000 -1.176
27 81.00 1500.03 257 626 0.740 10000.000 0.000 -1.176
28 84.00 1500.03 230 648 0.740 10000.000 0.000 -1.176
29 87.00 1500.03 240 622 0.740 10000.000 0.000 -1.176
30 90.00 1500.03 240 658 0.740 10000.000 0.000 -1.176
31 93.00 1500.03 222 622 0.740 10000.000 0.000 -1.176
32 96.00 1500.03 239 644 0.740 10000.000 0.000 -1.176
33 99.00 1500.03 224 644 0.740 10000.000 0.000 -1.176
34 102.00 1500.03 219 627 0.740 10000.000 0.000 -1.176
35 105.00 1500.03 205 635 0.740 10000.000 0.000 -1.176
36 108.00 1500.03 251 690 0.740 10000.000 0.000 -1.176
37 111.00 1500.03 213 662 0.740 10000.000 0.000 -1.176
38 114.00 1500.03 227 716 0.740 10000.000 0.000 -1.176
39 117.00 1500.03 213 684 0.740 10000.000 0.000 -1.176
40 120.00 1500.03 235 656 0.740 10000.000 0.000 -1.176
41 123.00 1500.03 225 675 0.740 10000.000 0.000 -1.176
42 126.00 1500.03 239 687 0.740 10000.000 0.000 -1.176
43 129.00 1500.03 209 678 0.740 10000.000 0.000 -1.176
44 132.00 1500.03 232 723 0.740 10000.000 0.000 -1.176
45 135.00 1500.03 225 741 0.740 10000.000 0.000 -1.176
46 138.00 1500.03 208 654 0.740 10000.000 0.000 -1.176
47 141.00 1500.03 219 658 0.740 10000.000 0.000 -1.176
48 144.00 1500.03 210 672 0.740 10000.000 0.000 -1.176
49 147.00 1500.03 214 748 0.740 10000.000 0.000 -1.176
50 150.00 1500.03 259 675 0.740 10000.000 0.000 -1.176
51 153.00 1500.03 211 695 0.740 10000.000 0.000 -1.176
52 156.00 1500.03 245 689 0.740 10000.000 0.000 -1.176
53 159.00 1500.03 229 666 0.740 10000.000 0.000 -1.176
54 162.00 1500.03 222 674 0.740 10000.000 0.000 -1.176
55 165.00 1500.03 231 711 0.740 10000.000 0.000 -1.176
56 168.00 1500.03 237 701 0.740 10000.000 0.000 -1.176
57 171.00 1500.03 244 698 0.740 10000.000 0.000 -1.176
58 174.00 1500.03 251 738 0.740 10000.000 0.000 -1.176
59 177.00 1500.03 235 717 0.740 10000.000 0.000 -1.176
60 180.00 1500.03 252 673 0.740 10000.000 0.000 -1.176
61 183.00 1500.03 224 641 0.740 10000.000 0.000 -1.176
62 186.00 1500.03 253 665 0.740 10000.000 0.000 -1.176
63 189.00 1500.03 228 643 0.740 10000.000 0.000 -1.176
64 192.00 1500.03 201 649 0.740 10000.000 0.000 -1.176
65 195.00 1500.03 249 668 0.740 10000.000 0.000 -1.176
66 198.00 1500.03 238 645 0.740 10000.000 0.000 -1.176
67 201.00 1500.03 223 627 0.740 10000.000 0.000 -1.176
68 204.00 1500.03 212 668 0.740 10000.000 0.000 -1.176
69 207.00 1500.03 237 661 0.740 10000.000 0.000 -1.176
70 210.00 1500.03 216 686 0.740 10000.000 0.000 -1.176
71 213.00 1500.03 200 630 0.740 10000.000 0.000 -1.176
72 216.00 1500.03 225 673 0.740 10000.000 0.000 -1.176
73 219.00 1500.03 218 696 0.740 10000.000 0.000 -1.176
74 222.00 1500.03 227 686 0.740 10000.000 0.000 -1.176
75 225.00 1500.03 229 704 0.740 10000.000 0.000 -1.176
76 228.00 1500.03 229 679 0.740 10000.000 0.000 -1.176
77 231.00 1500.03 227 681 0.740 10000.000 0.000 -1.176
78 234.00 1500.03 217 680 0.740 10000.000 0.000 -1.176
79 237.00 1500.03 227 708 0.740 10000.000 0.000 -1.176
80 240.00 1500.03 240 686 0.740 10000.000 0.000 -1.176
81 243.00 1500.03 185 680 0.740 10000.000 0.000 -1.176
82 246.00 1500.03 250 687 0.740 10000.000 0.000 -1.176
83 249.00 1500.03 208 740 0.740 10000.000 0.000 -1.176
84 252.00 1500.03 234 723 0.740 10000.000 0.000 -1.176
85 255.00 1500.03 232 673 0.740 10000.000 0.000 -1.176
86 258.00 1500.03 225 671 0.740 10000.000 0.000 -1.176
87 261.00 1500.03 212 687 0.740 10000.000 0.000 -1.176
88 264.00 1500.03 249 710 0.740 10000.000 0.000 -1.176
89 267.00 1500.03 259 734 0.740 10000.000 0.000 -1.176
90 270.00 1500.03 256 723 0.740 10000.000 0.000 -1.176
91 273.00 1500.03 216 656 0.740 10000.000 0.000 -1.176
92 276.00 1500.03 229 629 0.740 10000.000 0.000 -1.176
93 279.00 1500.03 253 662 0.740 10000.000 0.000 -1.176
94 282.00 1500.03 246 697 0.740 10000.000 0.000 -1.176
95 285.00 1500.03 227 651 0.740 10000.000 0.000 -1.176
96 288.00 1500.03 232 656 0.740 10000.000 0.000 -1.176
97 291.00 1500.03 218 639 0.740 10000.000 0.000 -1.176
98 294.00 1500.03 260 622 0.740 10000.000 0.000 -1.176
99 297.00 1500.03 233 651 0.740 10000.000 0.000 -1.176
100 300.00 1500.03 224 593 0.740 10000.000 0.000 -1.176
101 303.00 1500.03 238 660 0.740 10000.000 0.000 -1.176
102 306.00 1500.03 209 678 0.740 10000.000 0.000 -1.176
103 309.00 1500.03 211 658 0.740 10000.000 0.000 -1.176
104 312.00 1500.03 232 637 0.740 10000.000 0.000 -1.176
105 315.00 1500.03 216 698 0.740 10000.000 0.000 -1.176
106 318.00 1500.03 231 678 0.740 10000.000 0.000 -1.176
107 321.00 1500.03 216 656 0.740 10000.000 0.000 -1.176
108 324.00 1500.03 242 713 0.740 10000.000 0.000 -1.176
109 327.00 1500.03 243 661 0.740 10000.000 0.000 -1.176
110 330.00 1500.03 247 685 0.740 10000.000 0.000 -1.176
111 333.00 1500.03 229 670 0.740 10000.000 0.000 -1.176
112 336.00 1500.03 244 674 0.740 10000.000 0.000 -1.176
113 339.00 1500.03 233 645 0.740 10000.000 0.000 -1.176
114 342.00 1500.03 252 730 0.740 10000.000 0.000 -1.176
115 345.00 1500.03 226 735 0.740 10000.000 0.000 -1.176
116 348.00 1500.03 222 720 0.740 10000.000 0.000 -1.176
117 351.00 1500.03 228 701 0.740 10000.000 0.000 -1.176
118 354.00 1500.03 218 725 0.740 10000.000 0.000 -1.176
119 357.00 1500.03 226 683 0.740 10000.000 0.000 -1.176
120 360.00 1500.03 227 672 0.740 10000.000 0.000 -1.176
121 363.00 1500.03 227 709 0.740 10000.000 0.000 -1.176
122 366.00 1500.03 208 690 0.740 10000.000 0.000 -1.176
123 369.00 1500.03 211 673 0.740 10000.000 0.000 -1.176
124 372.00 1500.03 222 706 0.740 10000.000 0.000 -1.176
125 375.00 1500.03 225 692 0.740 10000.000 0.000 -1.176
126 378.00 1500.03 218 663 0.740 10000.000 0.000 -1.176
127 381.00 1500.03 205 669 0.740 10000.000 0.000 -1.176
128 384.00 1500.03 243 676 0.740 10000.000 0.000 -1.176
129 387.00 1500.03 219 677 0.740 10000.000 0.000 -1.176
130 390.00 1500.03 216 658 0.740 10000.000 0.000 -1.176
131 393.00 1500.03 213 647 0.740 10000.000 0.000 -1.176
132 396.00 1500.03 244 623 0.740 10000.000 0.000 -1.176
133 399.00 1500.03 230 622 0.740 10000.000 0.000 -1.176
134 402.00 1500.03 220 666 0.740 10000.000 0.000 -1.176
135 405.00 1500.03 234 663 0.740 10000.000 0.000 -1.176
136 408.00 1500.03 238 661 0.740 10000.000 0.000 -1.176
137 411.00 1500.03 239 684 0.740 10000.000 0.000 -1.176
138 414.00 1500.03 253 649 0.740 10000.000 0.000 -1.176
139 417.00 1500.03 233 634 0.740 10000.000 0.000 -1.176
140 420.00 1500.03 265 651 0.740 10000.000 0.000 -1.176
141 423.00 1500.03 215 699 0.740 10000.000 0.000 -1.176
142 426.00 1500.03 271 715 0.740 10000.000 0.000 -1.176
143 429.00 1500.03 218 699 0.740 10000.000 0.000 -1.176
144 432.00 1500.03 239 708 0.740 10000.000 0.000 -1.176
