# BinNR microsec tot-time (s)  O-Beam AUX Ampl(V) f(Hz) phase(deg) chi(pos)
0 0.00 1500.00 92 181 0.740 10000.000 0.000 -0.505
1 3.00 1500.00 195 332 0.740 10000.000 0.000 -0.505
2 6.00 1500.00 179 360 0.740 10000.000 0.000 -0.505
3 9.00 1500.00 160 355 0.740 10000.000 0.000 -0.505
4 12.00 1500.00 174 328 0.740 10000.000 0.000 -0.505
5 15.00 1500.00 181 360 0.740 10000.000 0.000 -0.505
6 18.00 1500.00 193 367 0.740 10000.000 0.000 -0.505
7 21.00 1500.00 165 378 0.740 10000.000 0.000 -0.505
8 24.00 1500.00 191 390 0.740 10000.000 0.000 -0.505
9 27.00 1500.00 192 391 0.740 10000.000 0.000 -0.505
10 30.00 1500.00 215 391 0.740 10000.000 0.000 -0.505
11 33.00 1500.00 190 388 0.740 10000.000 0.000 -0.505
12 36.00 1500.00 165 407 0.740 10000.000 0.000 -0.505
13 39.00 1500.00 181 354 0.740 10000.000 0.000 -0.505
14 42.00 1500.00 186 411 0.740 10000.000 0.000 -0.505
15 45.00 1500.00 176 356 0.740 10000.000 0.000 -0.505
16 48.00 1500.00 187 396 0.740 10000.000 0.000 -0.505
17 51.00 1500.00 206 354 0.740 10000.000 0.000 -0.505
18 54.00 1500.00 156 375 0.740 10000.000 0.000 -0.505
19 57.00 1500.00 169 347 0.740 10000.000 0.000 -0.505
20 60.00 1500.00 181 375 0.740 10000.000 0.000 -0.505
21 63.00 1500.00 156 340 0.740 10000.000 0.000 -0.505
22 66.00 1500.00 187 365 0.740 10000.000 0.000 -0.505
23 69.00 1500.00 156 386 0.740 10000.000 0.000 -0.505
24 72.00 1500.00 180 369 0.740 10000.000 0.000 -0.505
25 75.00 1500.00 154 406 0.740 10000.000 0.000 -0.505
26 78.00 1500.00 136 385 0.740 10000.000 0.000 -0.505
27 81.00 1500.00 162 414 0.740 10000.000 0.000 -0.505
28 84.00 1500.00 154 406 0.740 10000.000 0.000 -0.505
29 87.00 1500.00 147 480 0.740 10000.000 0.000 -0.505
30 90.00 1500.00 148 468 0.740 10000.000 0.000 -0.505
31 93.00 1500.00 155 478 0.740 10000.000 0.000 -0.505
32 96.00 1500.00 164 525 0.740 10000.000 0.000 -0.505
33 99.00 1500.00 180 451 0.740 10000.000 0.000 -0.505
34 102.00 1500.00 157 463 0.740 10000.000 0.000 -0.505
35 105.00 1500.00 145 462 0.740 10000.000 0.000 -0.505
36 108.00 1500.00 186 445 0.740 10000.000 0.000 -0.505
37 111.00 1500.00 177 432 0.740 10000.000 0.000 -0.505
38 114.00 1500.00 173 455 0.740 10000.000 0.000 -0.505
39 117.00 1500.00 191 447 0.740 10000.000 0.000 -0.505
40 120.00 1500.00 182 387 0.740 10000.000 0.000 -0.505
41 123.00 1500.00 167 370 0.740 10000.000 0.000 -0.505
42 126.00 1500.00 172 368 0.740 10000.000 0.000 -0.505
43 129.00 1500.00 212 347 0.740 10000.000 0.000 -0.505
44 132.00 1500.00 203 327 0.740 10000.000 0.000 -0.505
45 135.00 1500.00 187 345 0.740 10000.000 0.000 -0.505
46 138.00 1500.00 201 345 0.740 10000.000 0.000 -0.505
47 141.00 1500.00 205 344 0.740 10000.000 0.000 -0.505
48 144.00 1500.00 205 326 0.740 10000.000 0.000 -0.505
49 147.00 1500.00 196 295 0.740 10000.000 0.000 -0.505
50 150.00 1500.00 212 316 0.740 10000.000 0.000 -0.505
51 153.00 1500.00 190 337 0.740 10000.000 0.000 -0.505
52 156.00 1500.00 180 319 0.740 10000.000 0.000 -0.505
53 159.00 1500.00 158 345 0.740 10000.000 0.000 -0.505
54 162.00 1500.00 163 357 0.740 10000.000 0.000 -0.505
55 165.00 1500.00 161 353 0.740 10000.000 0.000 -0.505
56 168.00 1500.00 165 365 0.740 10000.000 0.000 -0.505
57 171.00 1500.00 146 381 0.740 10000.000 0.000 -0.505
58 174.00 1500.00 148 437 0.740 10000.000 0.000 -0.505
59 177.00 1500.00 153 412 0.740 10000.000 0.000 -0.505
60 180.00 1500.00 164 431 0.740 10000.000 0.000 -0.505
61 183.00 1500.00 137 457 0.740 10000.000 0.000 -0.505
62 186.00 1500.00 155 433 0.740 10000.000 0.000 -0.505
63 189.00 1500.00 120 460 0.740 10000.000 0.000 -0.505
64 192.00 1500.00 169 482 0.740 10000.000 0.000 -0.505
65 195.00 1500.00 160 471 0.740 10000.000 0.000 -0.505
66 198.00 1500.00 150 478 0.740 10000.000 0.000 -0.505
67 201.00 1500.00 158 440 0.740 10000.000 0.000 -0.505
68 204.00 1500.00 139 481 0.740 10000.000 0.000 -0.505
69 207.00 1500.00 169 433 0.740 10000.000 0.000 -0.505
70 210.00 1500.00 169 470 0.740 10000.000 0.000 -0.505
71 213.00 1500.00 150 405 0.740 10000.000 0.000 -0.505
72 216.00 1500.00 175 423 0.740 10000.000 0.000 -0.505
73 219.00 1500.00 201 409 0.740 10000.000 0.000 -0.505
74 222.00 1500.00 181 420 0.740 10000.000 0.000 -0.505
75 225.00 1500.00 172 379 0.740 10000.000 0.000 -0.505
76 228.00 1500.00 198 338 0.740 10000.000 0.000 -0.505
77 231.00 1500.00 208 361 0.740 10000.000 0.000 -0.505
78 234.00 1500.00 194 362 0.740 10000.000 0.000 -0.505
79 237.00 1500.00 189 353 0.740 10000.000 0.000 -0.505
80 240.00 1500.00 183 318 0.740 10000.000 0.000 -0.505
81 243.00 1500.00 186 299 0.740 10000.000 0.000 -0.505
82 246.00 1500.00 174 332 0.740 10000.000 0.000 -0.505
83 249.00 1500.00 196 355 0.740 10000.000 0.000 -0.505
84 252.00 1500.00 186 334 0.740 10000.000 0.000 -0.505
85 255.00 1500.00 171 319 0.740 10000.000 0.000 -0.505
86 258.00 1500.00 172 321 0.740 10000.000 0.000 -0.505
87 261.00 1500.00 218 340 0.740 10000.000 0.000 -0.505
88 264.00 1500.00 173 350 0.740 10000.000 0.000 -0.505
89 267.00 1500.00 154 417 0.740 10000.000 0.000 -0.505
90 270.00 1500.00 167 351 0.740 10000.000 0.000 -0.505
91 273.00 1500.00 153 393 0.740 10000.000 0.000 -0.505
92 276.00 1500.00 150 437 0.740 10000.000 0.000 -0.505
93 279.00 1500.00 146 418 0.740 10000.000 0.000 -0.505
94 282.00 1500.00 150 449 0.740 10000.000 0.000 -0.505
95 285.00 1500.00 183 480 0.740 10000.000 0.000 -0.505
96 288.00 1500.00 156 500 0.740 10000.000 0.000 -0.505
97 291.00 1500.00 143 491 0.740 10000.000 0.000 -0.505
98 294.00 1500.00 158 465 0.740 10000.000 0.000 -0.505
99 297.00 1500.00 166 496 0.740 10000.000 0.000 -0.505
100 300.00 1500.00 175 510 0.740 10000.000 0.000 -0.505
101 303.00 1500.00 171 491 0.740 10000.000 0.000 -0.505
102 306.00 1500.00 179 449 0.740 10000.000 0.000 -0.505
103 309.00 1500.00 168 468 0.740 10000.000 0.000 -0.505
104 312.00 1500.00 164 440 0.740 10000.000 0.000 -0.505
105 315.00 1500.00 176 422 0.740 10000.000 0.000 -0.505
106 318.00 1500.00 186 454 0.740 10000.000 0.000 -0.505
107 321.00 1500.00 168 408 0.740 10000.000 0.000 -0.505
108 324.00 1500.00 182 383 0.740 10000.000 0.000 -0.505
109 327.00 1500.00 142 364 0.740 10000.000 0.000 -0.505
110 330.00 1500.00 155 361 0.740 10000.000 0.000 -0.505
111 333.00 1500.00 165 332 0.740 10000.000 0.000 -0.505
112 336.00 1500.00 183 327 0.740 10000.000 0.000 -0.505
113 339.00 1500.00 150 293 0.740 10000.000 0.000 -0.505
114 342.00 1500.00 162 302 0.740 10000.000 0.000 -0.505
115 345.00 1500.00 193 327 0.740 10000.000 0.000 -0.505
116 348.00 1500.00 171 337 0.740 10000.000 0.000 -0.505
117 351.00 1500.00 162 322 0.740 10000.000 0.000 -0.505
118 354.00 1500.00 189 351 0.740 10000.000 0.000 -0.505
119 357.00 1500.00 171 327 0.740 10000.000 0.000 -0.505
120 360.00 1500.00 201 331 0.740 10000.000 0.000 -0.505
121 363.00 1500.00 188 368 0.740 10000.000 0.000 -0.505
122 366.00 1500.00 204 392 0.740 10000.000 0.000 -0.505
123 369.00 1500.00 187 347 0.740 10000.000 0.000 -0.505
124 372.00 1500.00 188 383 0.740 10000.000 0.000 -0.505
125 375.00 1500.00 216 392 0.740 10000.000 0.000 -0.505
126 378.00 1500.00 175 425 0.740 10000.000 0.000 -0.505
127 381.00 1500.00 199 458 0.740 10000.000 0.000 -0.505
128 384.00 1500.00 187 445 0.740 10000.000 0.000 -0.505
129 387.00 1500.00 181 429 0.740 10000.000 0.000 -0.505
130 390.00 1500.00 200 466 0.740 10000.000 0.000 -0.505
131 393.00 1500.00 193 487 0.740 10000.000 0.000 -0.505
132 396.00 1500.00 189 508 0.740 10000.000 0.000 -0.505
133 399.00 1500.00 165 474 0.740 10000.000 0.000 -0.505
134 402.00 1500.00 152 495 0.740 10000.000 0.000 -0.505
135 405.00 1500.00 141 452 0.740 10000.000 0.000 -0.505
136 408.00 1500.00 153 493 0.740 10000.000 0.000 -0.505
137 411.00 1500.00 159 469 0.740 10000.000 0.000 -0.505
138 414.00 1500.00 155 441 0.740 10000.000 0.000 -0.505
139 417.00 1500.00 161 422 0.740 10000.000 0.000 -0.505
140 420.00 1500.00 153 439 0.740 10000.000 0.000 -0.505
141 423.00 1500.00 151 387 0.740 10000.000 0.000 -0.505
142 426.00 1500.00 139 384 0.740 10000.000 0.000 -0.505
143 429.00 1500.00 140 365 0.740 10000.000 0.000 -0.505
144 432.00 1500.00 161 375 0.740 10000.000 0.000 -0.505
