# BinNR microsec tot-time (s)  O-Beam AUX Ampl(V) f(Hz) phase(deg) chi(pos)
0 0.00 1500.01 104 332 0.740 10000.000 0.000 0.835
1 3.00 1500.01 252 667 0.740 10000.000 0.000 0.835
2 6.00 1500.01 257 731 0.740 10000.000 0.000 0.835
3 9.00 1500.01 233 691 0.740 10000.000 0.000 0.835
4 12.00 1500.01 206 722 0.740 10000.000 0.000 0.835
5 15.00 1500.01 197 714 0.740 10000.000 0.000 0.835
6 18.00 1500.01 216 672 0.740 10000.000 0.000 0.835
7 21.00 1500.01 218 686 0.740 10000.000 0.000 0.835
8 24.00 1500.01 237 696 0.740 10000.000 0.000 0.835
9 27.00 1500.01 203 671 0.740 10000.000 0.000 0.835
10 30.00 1500.01 216 674 0.740 10000.000 0.000 0.835
11 33.00 1500.01 195 667 0.740 10000.000 0.000 0.835
12 36.00 1500.01 204 652 0.740 10000.000 0.000 0.835
13 39.00 1500.01 214 719 0.740 10000.000 0.000 0.835
14 42.00 1500.01 194 716 0.740 10000.000 0.000 0.835
15 45.00 1500.01 233 685 0.740 10000.000 0.000 0.835
16 48.00 1500.01 223 690 0.740 10000.000 0.000 0.835
17 51.00 1500.01 195 690 0.740 10000.000 0.000 0.835
18 54.00 1500.01 215 726 0.740 10000.000 0.000 0.835
19 57.00 1500.01 252 683 0.740 10000.000 0.000 0.835
20 60.00 1500.01 245 685 0.740 10000.000 0.000 0.835
21 63.00 1500.01 215 684 0.740 10000.000 0.000 0.835
22 66.00 1500.01 252 650 0.740 10000.000 0.000 0.835
23 69.00 1500.01 230 633 0.740 10000.000 0.000 0.835
24 72.00 1500.01 273 708 0.740 10000.000 0.000 0.835
25 75.00 1500.01 245 727 0.740 10000.000 0.000 0.835
26 78.00 1500.01 230 644 0.740 10000.000 0.000 0.835
27 81.00 1500.01 243 662 0.740 10000.000 0.000 0.835
28 84.00 1500.01 256 660 0.740 10000.000 0.000 0.835
29 87.00 1500.01 241 660 0.740 10000.000 0.000 0.835
30 90.00 1500.01 245 607 0.740 10000.000 0.000 0.835
31 93.00 1500.01 232 601 0.740 10000.000 0.000 0.835
32 96.00 1500.01 243 627 0.740 10000.000 0.000 0.835
33 99.00 1500.01 237 642 0.740 10000.000 0.000 0.835
34 102.00 1500.01 245 647 0.740 10000.000 0.000 0.835
35 105.00 1500.01 216 656 0.740 10000.000 0.000 0.835
36 108.00 1500.01 247 672 0.740 10000.000 0.000 0.835
37 111.00 1500.01 239 653 0.740 10000.000 0.000 0.835
38 114.00 1500.01 248 706 0.740 10000.000 0.000 0.835
39 117.00 1500.01 210 649 0.740 10000.000 0.000 0.835
40 120.00 1500.01 215 681 0.740 10000.000 0.000 0.835
41 123.00 1500.01 197 671 0.740 10000.000 0.000 0.835
42 126.00 1500.01 226 682 0.740 10000.000 0.000 0.835
43 129.00 1500.01 222 680 0.740 10000.000 0.000 0.835
44 132.00 1500.01 250 657 0.740 10000.000 0.000 0.835
45 135.00 1500.01 210 701 0.740 10000.000 0.000 0.835
46 138.00 1500.01 208 683 0.740 10000.000 0.000 0.835
47 141.00 1500.01 215 678 0.740 10000.000 0.000 0.835
48 144.00 1500.01 225 695 0.740 10000.000 0.000 0.835
49 147.00 1500.01 244 683 0.740 10000.000 0.000 0.835
50 150.00 1500.01 199 671 0.740 10000.000 0.000 0.835
51 153.00 1500.01 239 709 0.740 10000.000 0.000 0.835
52 156.00 1500.01 219 683 0.740 10000.000 0.000 0.835
53 159.00 1500.01 225 703 0.740 10000.000 0.000 0.835
54 162.00 1500.01 234 677 0.740 10000.000 0.000 0.835
55 165.00 1500.01 235 658 0.740 10000.000 0.000 0.835
56 168.00 1500.01 226 692 0.740 10000.000 0.000 0.835
57 171.00 1500.01 223 660 0.740 10000.000 0.000 0.835
58 174.00 1500.01 252 649 0.740 10000.000 0.000 0.835
59 177.00 1500.01 258 648 0.740 10000.000 0.000 0.835
60 180.00 1500.01 255 609 0.740 10000.000 0.000 0.835
61 183.00 1500.01 245 622 0.740 10000.000 0.000 0.835
62 186.00 1500.01 235 648 0.740 10000.000 0.000 0.835
63 189.00 1500.01 231 671 0.740 10000.000 0.000 0.835
64 192.00 1500.01 231 665 0.740 10000.000 0.000 0.835
65 195.00 1500.01 243 614 0.740 10000.000 0.000 0.835
66 198.00 1500.01 220 668 0.740 10000.000 0.000 0.835
67 201.00 1500.01 224 614 0.740 10000.000 0.000 0.835
68 204.00 1500.01 250 600 0.740 10000.000 0.000 0.835
69 207.00 1500.01 265 638 0.740 10000.000 0.000 0.835
70 210.00 1500.01 233 706 0.740 10000.000 0.000 0.835
71 213.00 1500.01 234 602 0.740 10000.000 0.000 0.835
72 216.00 1500.01 231 657 0.740 10000.000 0.000 0.835
73 219.00 1500.01 212 683 0.740 10000.000 0.000 0.835
74 222.00 1500.01 214 662 0.740 10000.000 0.000 0.835
75 225.00 1500.01 198 693 0.740 10000.000 0.000 0.835
76 228.00 1500.01 209 683 0.740 10000.000 0.000 0.835
77 231.00 1500.01 231 734 0.740 10000.000 0.000 0.835
78 234.00 1500.01 215 693 0.740 10000.000 0.000 0.835
79 237.00 1500.01 225 697 0.740 10000.000 0.000 0.835
80 240.00 1500.01 228 677 0.740 10000.000 0.000 0.835
81 243.00 1500.01 223 645 0.740 10000.000 0.000 0.835
82 246.00 1500.01 210 707 0.740 10000.000 0.000 0.835
83 249.00 1500.01 213 721 0.740 10000.000 0.000 0.835
84 252.00 1500.01 213 693 0.740 10000.000 0.000 0.835
85 255.00 1500.01 241 704 0.740 10000.000 0.000 0.835
86 258.00 1500.01 247 680 0.740 10000.000 0.000 0.835
87 261.00 1500.01 218 713 0.740 10000.000 0.000 0.835
88 264.00 1500.01 216 705 0.740 10000.000 0.000 0.835
89 267.00 1500.01 217 665 0.740 10000.000 0.000 0.835
90 270.00 1500.01 247 702 0.740 10000.000 0.000 0.835
91 273.00 1500.01 236 651 0.740 10000.000 0.000 0.835
92 276.00 1500.01 225 693 0.740 10000.000 0.000 0.835
93 279.00 1500.01 227 599 0.740 10000.000 0.000 0.835
94 282.00 1500.01 239 707 0.740 10000.000 0.000 0.835
95 285.00 1500.01 237 687 0.740 10000.000 0.000 0.835
96 288.00 1500.01 237 662 0.740 10000.000 0.000 0.835
97 291.00 1500.01 216 675 0.740 10000.000 0.000 0.835
98 294.00 1500.01 215 618 0.740 10000.000 0.000 0.835
99 297.00 1500.01 228 663 0.740 10000.000 0.000 0.835
100 300.00 1500.01 208 630 0.740 10000.000 0.000 0.835
101 303.00 1500.01 218 670 0.740 10000.000 0.000 0.835
102 306.00 1500.01 251 616 0.740 10000.000 0.000 0.835
103 309.00 1500.01 239 619 0.740 10000.000 0.000 0.835
104 312.00 1500.01 253 686 0.740 10000.000 0.000 0.835
105 315.00 1500.01 222 675 0.740 10000.000 0.000 0.835
106 318.00 1500.01 232 692 0.740 10000.000 0.000 0.835
107 321.00 1500.01 243 656 0.740 10000.000 0.000 0.835
108 324.00 1500.01 250 656 0.740 10000.000 0.000 0.835
109 327.00 1500.01 242 646 0.740 10000.000 0.000 0.835
110 330.00 1500.01 227 694 0.740 10000.000 0.000 0.835
111 333.00 1500.01 217 671 0.740 10000.000 0.000 0.835
112 336.00 1500.01 238 725 0.740 10000.000 0.000 0.835
113 339.00 1500.01 236 701 0.740 10000.000 0.000 0.835
114 342.00 1500.01 244 697 0.740 10000.000 0.000 0.835
115 345.00 1500.01 224 659 0.740 10000.000 0.000 0.835
116 348.00 1500.01 227 745 0.740 10000.000 0.000 0.835
117 351.00 1500.01 220 717 0.740 10000.000 0.000 0.835
118 354.00 1500.01 227 694 0.740 10000.000 0.000 0.835
119 357.00 1500.01 229 711 0.740 10000.000 0.000 0.835
120 360.00 1500.01 226 665 0.740 10000.000 0.000 0.835
121 363.00 1500.01 223 708 0.740 10000.000 0.000 0.835
122 366.00 1500.01 206 635 0.740 10000.000 0.000 0.835
123 369.00 1500.01 215 668 0.740 10000.000 0.000 0.835
124 372.00 1500.01 229 684 0.740 10000.000 0.000 0.835
125 375.00 1500.01 212 659 0.740 10000.000 0.000 0.835
126 378.00 1500.01 218 688 0.740 10000.000 0.000 0.835
127 381.00 1500.01 201 643 0.740 10000.000 0.000 0.835
128 384.00 1500.01 226 700 0.740 10000.000 0.000 0.835
129 387.00 1500.01 212 643 0.740 10000.000 0.000 0.835
130 390.00 1500.01 262 645 0.740 10000.000 0.000 0.835
131 393.00 1500.01 228 614 0.740 10000.000 0.000 0.835
132 396.00 1500.01 229 650 0.740 10000.000 0.000 0.835
133 399.00 1500.01 242 635 0.740 10000.000 0.000 0.835
134 402.00 1500.01 259 585 0.740 10000.000 0.000 0.835
135 405.00 1500.01 246 637 0.740 10000.000 0.000 0.835
136 408.00 1500.01 249 666 0.740 10000.000 0.000 0.835
137 411.00 1500.01 231 668 0.740 10000.000 0.000 0.835
138 414.00 1500.01 231 638 0.740 10000.000 0.000 0.835
139 417.00 1500.01 256 632 0.740 10000.000 0.000 0.835
140 420.00 1500.01 251 648 0.740 10000.000 0.000 0.835
141 423.00 1500.01 251 632 0.740 10000.000 0.000 0.835
142 426.00 1500.01 228 659 0.740 10000.000 0.000 0.835
143 429.00 1500.01 207 628 0.740 10000.000 0.000 0.835
144 432.00 1500.01 221 671 0.740 10000.000 0.000 0.835
