# BinNR microsec tot-time (s)  O-Beam AUX Ampl(V) f(Hz) phase(deg) chi(pos)
0 0.00 1500.00 93 272 0.740 10000.000 0.000 0.494
1 3.00 1500.00 190 516 0.740 10000.000 0.000 0.494
2 6.00 1500.00 181 558 0.740 10000.000 0.000 0.494
3 9.00 1500.00 165 568 0.740 10000.000 0.000 0.494
4 12.00 1500.00 174 516 0.740 10000.000 0.000 0.494
5 15.00 1500.00 146 567 0.740 10000.000 0.000 0.494
6 18.00 1500.00 169 533 0.740 10000.000 0.000 0.494
7 21.00 1500.00 176 489 0.740 10000.000 0.000 0.494
8 24.00 1500.00 161 481 0.740 10000.000 0.000 0.494
9 27.00 1500.00 141 497 0.740 10000.000 0.000 0.494
10 30.00 1500.00 151 516 0.740 10000.000 0.000 0.494
11 33.00 1500.00 159 465 0.740 10000.000 0.000 0.494
12 36.00 1500.00 135 522 0.740 10000.000 0.000 0.494
13 39.00 1500.00 160 469 0.740 10000.000 0.000 0.494
14 42.00 1500.00 154 515 0.740 10000.000 0.000 0.494
15 45.00 1500.00 196 527 0.740 10000.000 0.000 0.494
16 48.00 1500.00 158 525 0.740 10000.000 0.000 0.494
17 51.00 1500.00 168 537 0.740 10000.000 0.000 0.494
18 54.00 1500.00 146 543 0.740 10000.000 0.000 0.494
19 57.00 1500.00 165 493 0.740 10000.000 0.000 0.494
20 60.00 1500.00 155 543 0.740 10000.000 0.000 0.494
21 63.00 1500.00 173 549 0.740 10000.000 0.000 0.494
22 66.00 1500.00 166 515 0.740 10000.000 0.000 0.494
23 69.00 1500.00 185 515 0.740 10000.000 0.000 0.494
24 72.00 1500.00 188 459 0.740 10000.000 0.000 0.494
25 75.00 1500.00 193 462 0.740 10000.000 0.000 0.494
26 78.00 1500.00 180 501 0.740 10000.000 0.000 0.494
27 81.00 1500.00 169 419 0.740 10000.000 0.000 0.494
28 84.00 1500.00 183 431 0.740 10000.000 0.000 0.494
29 87.00 1500.00 180 399 0.740 10000.000 0.000 0.494
30 90.00 1500.00 195 399 0.740 10000.000 0.000 0.494
31 93.00 1500.00 185 402 0.740 10000.000 0.000 0.494
32 96.00 1500.00 177 416 0.740 10000.000 0.000 0.494
33 99.00 1500.00 216 401 0.740 10000.000 0.000 0.494
34 102.00 1500.00 178 373 0.740 10000.000 0.000 0.494
35 105.00 1500.00 168 396 0.740 10000.000 0.000 0.494
36 108.00 1500.00 185 383 0.740 10000.000 0.000 0.494
37 111.00 1500.00 190 431 0.740 10000.000 0.000 0.494
38 114.00 1500.00 160 443 0.740 10000.000 0.000 0.494
39 117.00 1500.00 150 446 0.740 10000.000 0.000 0.494
40 120.00 1500.00 181 487 0.740 10000.000 0.000 0.494
41 123.00 1500.00 144 467 0.740 10000.000 0.000 0.494
42 126.00 1500.00 132 511 0.740 10000.000 0.000 0.494
43 129.00 1500.00 145 514 0.740 10000.000 0.000 0.494
44 132.00 1500.00 147 549 0.740 10000.000 0.000 0.494
45 135.00 1500.00 137 572 0.740 10000.000 0.000 0.494
46 138.00 1500.00 155 531 0.740 10000.000 0.000 0.494
47 141.00 1500.00 144 524 0.740 10000.000 0.000 0.494
48 144.00 1500.00 155 619 0.740 10000.000 0.000 0.494
49 147.00 1500.00 161 564 0.740 10000.000 0.000 0.494
50 150.00 1500.00 159 600 0.740 10000.000 0.000 0.494
51 153.00 1500.00 150 542 0.740 10000.000 0.000 0.494
52 156.00 1500.00 150 582 0.740 10000.000 0.000 0.494
53 159.00 1500.00 149 492 0.740 10000.000 0.000 0.494
54 162.00 1500.00 177 561 0.740 10000.000 0.000 0.494
55 165.00 1500.00 191 560 0.740 10000.000 0.000 0.494
56 168.00 1500.00 161 506 0.740 10000.000 0.000 0.494
57 171.00 1500.00 171 520 0.740 10000.000 0.000 0.494
58 174.00 1500.00 176 475 0.740 10000.000 0.000 0.494
59 177.00 1500.00 185 460 0.740 10000.000 0.000 0.494
60 180.00 1500.00 196 468 0.740 10000.000 0.000 0.494
61 183.00 1500.00 172 460 0.740 10000.000 0.000 0.494
62 186.00 1500.00 181 451 0.740 10000.000 0.000 0.494
63 189.00 1500.00 191 407 0.740 10000.000 0.000 0.494
64 192.00 1500.00 171 407 0.740 10000.000 0.000 0.494
65 195.00 1500.00 189 465 0.740 10000.000 0.000 0.494
66 198.00 1500.00 184 446 0.740 10000.000 0.000 0.494
67 201.00 1500.00 164 420 0.740 10000.000 0.000 0.494
68 204.00 1500.00 187 425 0.740 10000.000 0.000 0.494
69 207.00 1500.00 185 429 0.740 10000.000 0.000 0.494
70 210.00 1500.00 160 432 0.740 10000.000 0.000 0.494
71 213.00 1500.00 161 433 0.740 10000.000 0.000 0.494
72 216.00 1500.00 181 447 0.740 10000.000 0.000 0.494
73 219.00 1500.00 154 486 0.740 10000.000 0.000 0.494
74 222.00 1500.00 155 514 0.740 10000.000 0.000 0.494
75 225.00 1500.00 160 490 0.740 10000.000 0.000 0.494
76 228.00 1500.00 151 501 0.740 10000.000 0.000 0.494
77 231.00 1500.00 137 528 0.740 10000.000 0.000 0.494
78 234.00 1500.00 125 519 0.740 10000.000 0.000 0.494
79 237.00 1500.00 133 549 0.740 10000.000 0.000 0.494
80 240.00 1500.00 156 571 0.740 10000.000 0.000 0.494
81 243.00 1500.00 155 563 0.740 10000.000 0.000 0.494
82 246.00 1500.00 175 566 0.740 10000.000 0.000 0.494
83 249.00 1500.00 167 561 0.740 10000.000 0.000 0.494
84 252.00 1500.00 159 578 0.740 10000.000 0.000 0.494
85 255.00 1500.00 153 509 0.740 10000.000 0.000 0.494
86 258.00 1500.00 168 562 0.740 10000.000 0.000 0.494
87 261.00 1500.00 185 566 0.740 10000.000 0.000 0.494
88 264.00 1500.00 183 539 0.740 10000.000 0.000 0.494
89 267.00 1500.00 161 524 0.740 10000.000 0.000 0.494
90 270.00 1500.00 185 503 0.740 10000.000 0.000 0.494
91 273.00 1500.00 174 463 0.740 10000.000 0.000 0.494
92 276.00 1500.00 199 475 0.740 10000.000 0.000 0.494
93 279.00 1500.00 164 454 0.740 10000.000 0.000 0.494
94 282.00 1500.00 180 408 0.740 10000.000 0.000 0.494
95 285.00 1500.00 184 408 0.740 10000.000 0.000 0.494
96 288.00 1500.00 186 439 0.740 10000.000 0.000 0.494
97 291.00 1500.00 176 393 0.740 10000.000 0.000 0.494
98 294.00 1500.00 193 380 0.740 10000.000 0.000 0.494
99 297.00 1500.00 181 417 0.740 10000.000 0.000 0.494
100 300.00 1500.00 173 398 0.740 10000.000 0.000 0.494
101 303.00 1500.00 178 354 0.740 10000.000 0.000 0.494
102 306.00 1500.00 190 400 0.740 10000.000 0.000 0.494
103 309.00 1500.00 172 445 0.740 10000.000 0.000 0.494
104 312.00 1500.00 187 417 0.740 10000.000 0.000 0.494
105 315.00 1500.00 162 425 0.740 10000.000 0.000 0.494
106 318.00 1500.00 166 489 0.740 10000.000 0.000 0.494
107 321.00 1500.00 172 477 0.740 10000.000 0.000 0.494
108 324.00 1500.00 170 533 0.740 10000.000 0.000 0.494
109 327.00 1500.00 175 527 0.740 10000.000 0.000 0.494
110 330.00 1500.00 185 560 0.740 10000.000 0.000 0.494
111 333.00 1500.00 164 541 0.740 10000.000 0.000 0.494
112 336.00 1500.00 185 569 0.740 10000.000 0.000 0.494
113 339.00 1500.00 159 562 0.740 10000.000 0.000 0.494
114 342.00 1500.00 182 561 0.740 10000.000 0.000 0.494
115 345.00 1500.00 168 541 0.740 10000.000 0.000 0.494
116 348.00 1500.00 171 605 0.740 10000.000 0.000 0.494
117 351.00 1500.00 156 577 0.740 10000.000 0.000 0.494
118 354.00 1500.00 141 580 0.740 10000.000 0.000 0.494
119 357.00 1500.00 141 585 0.740 10000.000 0.000 0.494
120 360.00 1500.00 150 582 0.740 10000.000 0.000 0.494
121 363.00 1500.00 157 523 0.740 10000.000 0.000 0.494
122 366.00 1500.00 139 496 0.740 10000.000 0.000 0.494
123 369.00 1500.00 147 516 0.740 10000.000 0.000 0.494
124 372.00 1500.00 164 543 0.740 10000.000 0.000 0.494
125 375.00 1500.00 154 494 0.740 10000.000 0.000 0.494
126 378.00 1500.00 140 518 0.740 10000.000 0.000 0.494
127 381.00 1500.00 157 466 0.740 10000.000 0.000 0.494
128 384.00 1500.00 158 430 0.740 10000.000 0.000 0.494
129 387.00 1500.00 153 411 0.740 10000.000 0.000 0.494
130 390.00 1500.00 197 464 0.740 10000.000 0.000 0.494
131 393.00 1500.00 150 386 0.740 10000.000 0.000 0.494
132 396.00 1500.00 194 426 0.740 10000.000 0.000 0.494
133 399.00 1500.00 186 392 0.740 10000.000 0.000 0.494
134 402.00 1500.00 187 434 0.740 10000.000 0.000 0.494
135 405.00 1500.00 180 397 0.740 10000.000 0.000 0.494
136 408.00 1500.00 194 459 0.740 10000.000 0.000 0.494
137 411.00 1500.00 172 419 0.740 10000.000 0.000 0.494
138 414.00 1500.00 183 455 0.740 10000.000 0.000 0.494
139 417.00 1500.00 184 470 0.740 10000.000 0.000 0.494
140 420.00 1500.00 173 468 0.740 10000.000 0.000 0.494
141 423.00 1500.00 189 454 0.740 10000.000 0.000 0.494
142 426.00 1500.00 197 572 0.740 10000.000 0.000 0.494
143 429.00 1500.00 161 494 0.740 10000.000 0.000 0.494
144 432.00 1500.00 187 556 0.740 10000.000 0.000 0.494
