# BinNR microsec tot-time (s)  O-Beam AUX Ampl(V) f(Hz) phase(deg) chi(pos)
1 1.00 2400.02 906 2409 8.000 130000.000 0.000 0.077
2 2.00 2400.02 921 2679 8.000 130000.000 0.000 0.077
3 3.00 2400.02 857 2534 8.000 130000.000 0.000 0.077
4 4.00 2400.02 908 2734 8.000 130000.000 0.000 0.077
5 5.00 2400.02 859 2618 8.000 130000.000 0.000 0.077
6 6.00 2400.02 902 2614 8.000 130000.000 0.000 0.077
7 7.00 2400.02 928 2352 8.000 130000.000 0.000 0.077
8 8.00 2400.02 969 2662 8.000 130000.000 0.000 0.077
9 9.00 2400.02 895 2599 8.000 130000.000 0.000 0.077
10 10.00 2400.02 926 2637 8.000 130000.000 0.000 0.077
11 11.00 2400.02 900 2562 8.000 130000.000 0.000 0.077
12 12.00 2400.02 917 2772 8.000 130000.000 0.000 0.077
13 13.00 2400.02 865 2617 8.000 130000.000 0.000 0.077
14 14.00 2400.02 947 2537 8.000 130000.000 0.000 0.077
15 15.00 2400.02 883 2483 8.000 130000.000 0.000 0.077
16 16.00 2400.02 925 2584 8.000 130000.000 0.000 0.077
17 17.00 2400.02 920 2564 8.000 130000.000 0.000 0.077
18 18.00 2400.02 911 2753 8.000 130000.000 0.000 0.077
19 19.00 2400.02 874 2728 8.000 130000.000 0.000 0.077
20 20.00 2400.02 886 2689 8.000 130000.000 0.000 0.077
21 21.00 2400.02 874 2474 8.000 130000.000 0.000 0.077
22 22.00 2400.02 914 2615 8.000 130000.000 0.000 0.077
23 23.00 2400.02 840 2513 8.000 130000.000 0.000 0.077
24 24.00 2400.02 881 2766 8.000 130000.000 0.000 0.077
25 25.00 2400.02 877 2618 8.000 130000.000 0.000 0.077
26 26.00 2400.02 928 2748 8.000 130000.000 0.000 0.077
27 27.00 2400.02 833 2736 8.000 130000.000 0.000 0.077
28 28.00 2400.02 906 2729 8.000 130000.000 0.000 0.077
29 29.00 2400.02 851 2499 8.000 130000.000 0.000 0.077
30 30.00 2400.02 859 2718 8.000 130000.000 0.000 0.077
31 31.00 2400.02 910 2569 8.000 130000.000 0.000 0.077
32 32.00 2400.02 931 2666 8.000 130000.000 0.000 0.077
33 33.00 2400.02 891 2635 8.000 130000.000 0.000 0.077
34 34.00 2400.02 1021 2858 8.000 130000.000 0.000 0.077
35 35.00 2400.02 886 2735 8.000 130000.000 0.000 0.077
36 36.00 2400.02 938 2692 8.000 130000.000 0.000 0.077
37 37.00 2400.02 883 2495 8.000 130000.000 0.000 0.077
38 38.00 2400.02 874 2558 8.000 130000.000 0.000 0.077
39 39.00 2400.02 909 2509 8.000 130000.000 0.000 0.077
40 40.00 2400.02 931 2759 8.000 130000.000 0.000 0.077
41 41.00 2400.02 820 2596 8.000 130000.000 0.000 0.077
42 42.00 2400.02 896 2797 8.000 130000.000 0.000 0.077
43 43.00 2400.02 853 2596 8.000 130000.000 0.000 0.077
44 44.00 2400.02 850 2740 8.000 130000.000 0.000 0.077
45 45.00 2400.02 862 2490 8.000 130000.000 0.000 0.077
46 46.00 2400.02 919 2614 8.000 130000.000 0.000 0.077
47 47.00 2400.02 870 2601 8.000 130000.000 0.000 0.077
48 48.00 2400.02 951 2642 8.000 130000.000 0.000 0.077
49 49.00 2400.02 865 2635 8.000 130000.000 0.000 0.077
50 50.00 2400.02 886 2769 8.000 130000.000 0.000 0.077
51 51.00 2400.02 897 2541 8.000 130000.000 0.000 0.077
52 52.00 2400.02 907 2644 8.000 130000.000 0.000 0.077
53 53.00 2400.02 879 2475 8.000 130000.000 0.000 0.077
54 54.00 2400.02 934 2719 8.000 130000.000 0.000 0.077
55 55.00 2400.02 890 2544 8.000 130000.000 0.000 0.077
56 56.00 2400.02 948 2786 8.000 130000.000 0.000 0.077
57 57.00 2400.02 912 2609 8.000 130000.000 0.000 0.077
58 58.00 2400.02 920 2702 8.000 130000.000 0.000 0.077
59 59.00 2400.02 833 2561 8.000 130000.000 0.000 0.077
60 60.00 2400.02 902 2545 8.000 130000.000 0.000 0.077
61 61.00 2400.02 865 2589 8.000 130000.000 0.000 0.077
62 62.00 2400.02 905 2691 8.000 130000.000 0.000 0.077
63 63.00 2400.02 900 2537 8.000 130000.000 0.000 0.077
64 64.00 2400.02 915 2713 8.000 130000.000 0.000 0.077
65 65.00 2400.02 853 2660 8.000 130000.000 0.000 0.077
66 66.00 2400.02 937 2668 8.000 130000.000 0.000 0.077
67 67.00 2400.02 858 2527 8.000 130000.000 0.000 0.077
68 68.00 2400.02 958 2614 8.000 130000.000 0.000 0.077
69 69.00 2400.02 856 2430 8.000 130000.000 0.000 0.077
70 70.00 2400.02 893 2597 8.000 130000.000 0.000 0.077
71 71.00 2400.02 913 2579 8.000 130000.000 0.000 0.077
72 72.00 2400.02 927 2711 8.000 130000.000 0.000 0.077
73 73.00 2400.02 877 2633 8.000 130000.000 0.000 0.077
74 74.00 2400.02 992 2688 8.000 130000.000 0.000 0.077
75 75.00 2400.02 889 2639 8.000 130000.000 0.000 0.077
76 76.00 2400.02 935 2663 8.000 130000.000 0.000 0.077
77 77.00 2400.02 877 2590 8.000 130000.000 0.000 0.077
78 78.00 2400.02 898 2603 8.000 130000.000 0.000 0.077
79 79.00 2400.02 899 2661 8.000 130000.000 0.000 0.077
80 80.00 2400.02 922 2795 8.000 130000.000 0.000 0.077
81 81.00 2400.02 873 2573 8.000 130000.000 0.000 0.077
82 82.00 2400.02 872 2678 8.000 130000.000 0.000 0.077
83 83.00 2400.02 860 2422 8.000 130000.000 0.000 0.077
84 84.00 2400.02 942 2600 8.000 130000.000 0.000 0.077
85 85.00 2400.02 869 2496 8.000 130000.000 0.000 0.077
86 86.00 2400.02 929 2743 8.000 130000.000 0.000 0.077
87 87.00 2400.02 924 2610 8.000 130000.000 0.000 0.077
88 88.00 2400.02 882 2704 8.000 130000.000 0.000 0.077
89 89.00 2400.02 879 2559 8.000 130000.000 0.000 0.077
90 90.00 2400.02 895 2654 8.000 130000.000 0.000 0.077
91 91.00 2400.02 832 2584 8.000 130000.000 0.000 0.077
92 92.00 2400.02 929 2708 8.000 130000.000 0.000 0.077
93 93.00 2400.02 869 2605 8.000 130000.000 0.000 0.077
94 94.00 2400.02 922 2700 8.000 130000.000 0.000 0.077
95 95.00 2400.02 877 2723 8.000 130000.000 0.000 0.077
96 96.00 2400.02 941 2738 8.000 130000.000 0.000 0.077
97 97.00 2400.02 924 2516 8.000 130000.000 0.000 0.077
98 98.00 2400.02 941 2616 8.000 130000.000 0.000 0.077
99 99.00 2400.02 854 2545 8.000 130000.000 0.000 0.077
100 100.00 2400.02 864 2622 8.000 130000.000 0.000 0.077
101 101.00 2400.02 862 2547 8.000 130000.000 0.000 0.077
102 102.00 2400.02 924 2587 8.000 130000.000 0.000 0.077
