# BinNR microsec tot-time (s)  O-Beam AUX Ampl(V) f(Hz) phase(deg) chi(pos)
0 0.00 1500.00 91 171 1.520 10000.000 0.000 -0.846
1 3.00 1500.00 186 269 1.520 10000.000 0.000 -0.846
2 6.00 1500.00 199 303 1.520 10000.000 0.000 -0.846
3 9.00 1500.00 173 271 1.520 10000.000 0.000 -0.846
4 12.00 1500.00 231 306 1.520 10000.000 0.000 -0.846
5 15.00 1500.00 218 345 1.520 10000.000 0.000 -0.846
6 18.00 1500.00 230 398 1.520 10000.000 0.000 -0.846
7 21.00 1500.00 214 421 1.520 10000.000 0.000 -0.846
8 24.00 1500.00 213 456 1.520 10000.000 0.000 -0.846
9 27.00 1500.00 265 456 1.520 10000.000 0.000 -0.846
10 30.00 1500.00 266 509 1.520 10000.000 0.000 -0.846
11 33.00 1500.00 274 470 1.520 10000.000 0.000 -0.846
12 36.00 1500.00 253 490 1.520 10000.000 0.000 -0.846
13 39.00 1500.00 232 491 1.520 10000.000 0.000 -0.846
14 42.00 1500.00 224 505 1.520 10000.000 0.000 -0.846
15 45.00 1500.00 225 442 1.520 10000.000 0.000 -0.846
16 48.00 1500.00 220 429 1.520 10000.000 0.000 -0.846
17 51.00 1500.00 238 320 1.520 10000.000 0.000 -0.846
18 54.00 1500.00 203 312 1.520 10000.000 0.000 -0.846
19 57.00 1500.00 196 305 1.520 10000.000 0.000 -0.846
20 60.00 1500.00 189 295 1.520 10000.000 0.000 -0.846
21 63.00 1500.00 167 357 1.520 10000.000 0.000 -0.846
22 66.00 1500.00 155 343 1.520 10000.000 0.000 -0.846
23 69.00 1500.00 158 403 1.520 10000.000 0.000 -0.846
24 72.00 1500.00 176 446 1.520 10000.000 0.000 -0.846
25 75.00 1500.00 154 522 1.520 10000.000 0.000 -0.846
26 78.00 1500.00 147 588 1.520 10000.000 0.000 -0.846
27 81.00 1500.00 171 683 1.520 10000.000 0.000 -0.846
28 84.00 1500.00 137 716 1.520 10000.000 0.000 -0.846
29 87.00 1500.00 152 776 1.520 10000.000 0.000 -0.846
30 90.00 1500.00 162 774 1.520 10000.000 0.000 -0.846
31 93.00 1500.00 153 844 1.520 10000.000 0.000 -0.846
32 96.00 1500.00 162 901 1.520 10000.000 0.000 -0.846
33 99.00 1500.00 170 837 1.520 10000.000 0.000 -0.846
34 102.00 1500.00 182 901 1.520 10000.000 0.000 -0.846
35 105.00 1500.00 189 855 1.520 10000.000 0.000 -0.846
36 108.00 1500.00 171 799 1.520 10000.000 0.000 -0.846
37 111.00 1500.00 178 812 1.520 10000.000 0.000 -0.846
38 114.00 1500.00 215 780 1.520 10000.000 0.000 -0.846
39 117.00 1500.00 214 634 1.520 10000.000 0.000 -0.846
40 120.00 1500.00 230 630 1.520 10000.000 0.000 -0.846
41 123.00 1500.00 248 495 1.520 10000.000 0.000 -0.846
42 126.00 1500.00 239 477 1.520 10000.000 0.000 -0.846
43 129.00 1500.00 261 374 1.520 10000.000 0.000 -0.846
44 132.00 1500.00 283 323 1.520 10000.000 0.000 -0.846
45 135.00 1500.00 229 310 1.520 10000.000 0.000 -0.846
46 138.00 1500.00 258 281 1.520 10000.000 0.000 -0.846
47 141.00 1500.00 271 262 1.520 10000.000 0.000 -0.846
48 144.00 1500.00 241 267 1.520 10000.000 0.000 -0.846
49 147.00 1500.00 279 239 1.520 10000.000 0.000 -0.846
50 150.00 1500.00 245 246 1.520 10000.000 0.000 -0.846
51 153.00 1500.00 197 232 1.520 10000.000 0.000 -0.846
52 156.00 1500.00 221 281 1.520 10000.000 0.000 -0.846
53 159.00 1500.00 200 306 1.520 10000.000 0.000 -0.846
54 162.00 1500.00 181 302 1.520 10000.000 0.000 -0.846
55 165.00 1500.00 189 313 1.520 10000.000 0.000 -0.846
56 168.00 1500.00 149 390 1.520 10000.000 0.000 -0.846
57 171.00 1500.00 144 434 1.520 10000.000 0.000 -0.846
58 174.00 1500.00 184 530 1.520 10000.000 0.000 -0.846
59 177.00 1500.00 145 634 1.520 10000.000 0.000 -0.846
60 180.00 1500.00 153 681 1.520 10000.000 0.000 -0.846
61 183.00 1500.00 142 698 1.520 10000.000 0.000 -0.846
62 186.00 1500.00 157 769 1.520 10000.000 0.000 -0.846
63 189.00 1500.00 147 849 1.520 10000.000 0.000 -0.846
64 192.00 1500.00 147 863 1.520 10000.000 0.000 -0.846
65 195.00 1500.00 161 871 1.520 10000.000 0.000 -0.846
66 198.00 1500.00 168 893 1.520 10000.000 0.000 -0.846
67 201.00 1500.00 166 822 1.520 10000.000 0.000 -0.846
68 204.00 1500.00 191 853 1.520 10000.000 0.000 -0.846
69 207.00 1500.00 183 840 1.520 10000.000 0.000 -0.846
70 210.00 1500.00 198 812 1.520 10000.000 0.000 -0.846
71 213.00 1500.00 187 759 1.520 10000.000 0.000 -0.846
72 216.00 1500.00 207 683 1.520 10000.000 0.000 -0.846
73 219.00 1500.00 219 577 1.520 10000.000 0.000 -0.846
74 222.00 1500.00 237 545 1.520 10000.000 0.000 -0.846
75 225.00 1500.00 234 524 1.520 10000.000 0.000 -0.846
76 228.00 1500.00 263 428 1.520 10000.000 0.000 -0.846
77 231.00 1500.00 248 328 1.520 10000.000 0.000 -0.846
78 234.00 1500.00 266 343 1.520 10000.000 0.000 -0.846
79 237.00 1500.00 257 282 1.520 10000.000 0.000 -0.846
80 240.00 1500.00 246 288 1.520 10000.000 0.000 -0.846
81 243.00 1500.00 243 236 1.520 10000.000 0.000 -0.846
82 246.00 1500.00 254 242 1.520 10000.000 0.000 -0.846
83 249.00 1500.00 235 226 1.520 10000.000 0.000 -0.846
84 252.00 1500.00 230 252 1.520 10000.000 0.000 -0.846
85 255.00 1500.00 199 269 1.520 10000.000 0.000 -0.846
86 258.00 1500.00 176 269 1.520 10000.000 0.000 -0.846
87 261.00 1500.00 189 302 1.520 10000.000 0.000 -0.846
88 264.00 1500.00 192 312 1.520 10000.000 0.000 -0.846
89 267.00 1500.00 158 373 1.520 10000.000 0.000 -0.846
90 270.00 1500.00 161 411 1.520 10000.000 0.000 -0.846
91 273.00 1500.00 167 497 1.520 10000.000 0.000 -0.846
92 276.00 1500.00 153 585 1.520 10000.000 0.000 -0.846
93 279.00 1500.00 184 616 1.520 10000.000 0.000 -0.846
94 282.00 1500.00 189 702 1.520 10000.000 0.000 -0.846
95 285.00 1500.00 167 815 1.520 10000.000 0.000 -0.846
96 288.00 1500.00 176 821 1.520 10000.000 0.000 -0.846
97 291.00 1500.00 157 824 1.520 10000.000 0.000 -0.846
98 294.00 1500.00 148 927 1.520 10000.000 0.000 -0.846
99 297.00 1500.00 163 854 1.520 10000.000 0.000 -0.846
100 300.00 1500.00 175 938 1.520 10000.000 0.000 -0.846
101 303.00 1500.00 149 831 1.520 10000.000 0.000 -0.846
102 306.00 1500.00 189 914 1.520 10000.000 0.000 -0.846
103 309.00 1500.00 185 798 1.520 10000.000 0.000 -0.846
104 312.00 1500.00 172 745 1.520 10000.000 0.000 -0.846
105 315.00 1500.00 178 742 1.520 10000.000 0.000 -0.846
106 318.00 1500.00 156 638 1.520 10000.000 0.000 -0.846
107 321.00 1500.00 161 604 1.520 10000.000 0.000 -0.846
108 324.00 1500.00 143 531 1.520 10000.000 0.000 -0.846
109 327.00 1500.00 161 413 1.520 10000.000 0.000 -0.846
110 330.00 1500.00 164 408 1.520 10000.000 0.000 -0.846
111 333.00 1500.00 182 345 1.520 10000.000 0.000 -0.846
112 336.00 1500.00 175 333 1.520 10000.000 0.000 -0.846
113 339.00 1500.00 180 280 1.520 10000.000 0.000 -0.846
114 342.00 1500.00 169 262 1.520 10000.000 0.000 -0.846
115 345.00 1500.00 180 247 1.520 10000.000 0.000 -0.846
116 348.00 1500.00 238 211 1.520 10000.000 0.000 -0.846
117 351.00 1500.00 217 251 1.520 10000.000 0.000 -0.846
118 354.00 1500.00 259 258 1.520 10000.000 0.000 -0.846
119 357.00 1500.00 245 260 1.520 10000.000 0.000 -0.846
120 360.00 1500.00 244 300 1.520 10000.000 0.000 -0.846
121 363.00 1500.00 256 319 1.520 10000.000 0.000 -0.846
122 366.00 1500.00 235 368 1.520 10000.000 0.000 -0.846
123 369.00 1500.00 265 408 1.520 10000.000 0.000 -0.846
124 372.00 1500.00 255 455 1.520 10000.000 0.000 -0.846
125 375.00 1500.00 237 507 1.520 10000.000 0.000 -0.846
126 378.00 1500.00 264 614 1.520 10000.000 0.000 -0.846
127 381.00 1500.00 237 663 1.520 10000.000 0.000 -0.846
128 384.00 1500.00 216 791 1.520 10000.000 0.000 -0.846
129 387.00 1500.00 230 832 1.520 10000.000 0.000 -0.846
130 390.00 1500.00 178 864 1.520 10000.000 0.000 -0.846
131 393.00 1500.00 197 900 1.520 10000.000 0.000 -0.846
132 396.00 1500.00 172 940 1.520 10000.000 0.000 -0.846
133 399.00 1500.00 163 814 1.520 10000.000 0.000 -0.846
134 402.00 1500.00 158 896 1.520 10000.000 0.000 -0.846
135 405.00 1500.00 158 836 1.520 10000.000 0.000 -0.846
136 408.00 1500.00 151 793 1.520 10000.000 0.000 -0.846
137 411.00 1500.00 179 780 1.520 10000.000 0.000 -0.846
138 414.00 1500.00 154 732 1.520 10000.000 0.000 -0.846
139 417.00 1500.00 166 637 1.520 10000.000 0.000 -0.846
140 420.00 1500.00 158 610 1.520 10000.000 0.000 -0.846
141 423.00 1500.00 162 523 1.520 10000.000 0.000 -0.846
142 426.00 1500.00 148 468 1.520 10000.000 0.000 -0.846
143 429.00 1500.00 170 365 1.520 10000.000 0.000 -0.846
144 432.00 1500.00 166 366 1.520 10000.000 0.000 -0.846
