# BinNR microsec tot-time (s)  O-Beam AUX Ampl(V) f(Hz) phase(deg) chi(pos)
0 0.00 1500.00 54 83 1.520 10000.000 0.000 -1.000
1 3.00 1500.00 155 194 1.520 10000.000 0.000 -1.000
2 6.00 1500.00 170 191 1.520 10000.000 0.000 -1.000
3 9.00 1500.00 157 190 1.520 10000.000 0.000 -1.000
4 12.00 1500.00 161 206 1.520 10000.000 0.000 -1.000
5 15.00 1500.00 151 192 1.520 10000.000 0.000 -1.000
6 18.00 1500.00 189 206 1.520 10000.000 0.000 -1.000
7 21.00 1500.00 181 228 1.520 10000.000 0.000 -1.000
8 24.00 1500.00 167 234 1.520 10000.000 0.000 -1.000
9 27.00 1500.00 205 240 1.520 10000.000 0.000 -1.000
10 30.00 1500.00 203 291 1.520 10000.000 0.000 -1.000
11 33.00 1500.00 195 266 1.520 10000.000 0.000 -1.000
12 36.00 1500.00 207 291 1.520 10000.000 0.000 -1.000
13 39.00 1500.00 187 256 1.520 10000.000 0.000 -1.000
14 42.00 1500.00 193 256 1.520 10000.000 0.000 -1.000
15 45.00 1500.00 167 212 1.520 10000.000 0.000 -1.000
16 48.00 1500.00 173 211 1.520 10000.000 0.000 -1.000
17 51.00 1500.00 168 185 1.520 10000.000 0.000 -1.000
18 54.00 1500.00 168 198 1.520 10000.000 0.000 -1.000
19 57.00 1500.00 164 183 1.520 10000.000 0.000 -1.000
20 60.00 1500.00 135 194 1.520 10000.000 0.000 -1.000
21 63.00 1500.00 136 204 1.520 10000.000 0.000 -1.000
22 66.00 1500.00 130 194 1.520 10000.000 0.000 -1.000
23 69.00 1500.00 144 224 1.520 10000.000 0.000 -1.000
24 72.00 1500.00 138 243 1.520 10000.000 0.000 -1.000
25 75.00 1500.00 138 268 1.520 10000.000 0.000 -1.000
26 78.00 1500.00 149 344 1.520 10000.000 0.000 -1.000
27 81.00 1500.00 154 400 1.520 10000.000 0.000 -1.000
28 84.00 1500.00 164 434 1.520 10000.000 0.000 -1.000
29 87.00 1500.00 156 497 1.520 10000.000 0.000 -1.000
30 90.00 1500.00 157 502 1.520 10000.000 0.000 -1.000
31 93.00 1500.00 160 594 1.520 10000.000 0.000 -1.000
32 96.00 1500.00 152 610 1.520 10000.000 0.000 -1.000
33 99.00 1500.00 159 577 1.520 10000.000 0.000 -1.000
34 102.00 1500.00 176 554 1.520 10000.000 0.000 -1.000
35 105.00 1500.00 145 550 1.520 10000.000 0.000 -1.000
36 108.00 1500.00 152 507 1.520 10000.000 0.000 -1.000
37 111.00 1500.00 158 477 1.520 10000.000 0.000 -1.000
38 114.00 1500.00 181 432 1.520 10000.000 0.000 -1.000
39 117.00 1500.00 159 406 1.520 10000.000 0.000 -1.000
40 120.00 1500.00 188 317 1.520 10000.000 0.000 -1.000
41 123.00 1500.00 182 272 1.520 10000.000 0.000 -1.000
42 126.00 1500.00 201 278 1.520 10000.000 0.000 -1.000
43 129.00 1500.00 192 214 1.520 10000.000 0.000 -1.000
44 132.00 1500.00 185 213 1.520 10000.000 0.000 -1.000
45 135.00 1500.00 175 207 1.520 10000.000 0.000 -1.000
46 138.00 1500.00 205 196 1.520 10000.000 0.000 -1.000
47 141.00 1500.00 191 190 1.520 10000.000 0.000 -1.000
48 144.00 1500.00 187 203 1.520 10000.000 0.000 -1.000
49 147.00 1500.00 166 179 1.520 10000.000 0.000 -1.000
50 150.00 1500.00 188 172 1.520 10000.000 0.000 -1.000
51 153.00 1500.00 141 202 1.520 10000.000 0.000 -1.000
52 156.00 1500.00 160 196 1.520 10000.000 0.000 -1.000
53 159.00 1500.00 136 186 1.520 10000.000 0.000 -1.000
54 162.00 1500.00 130 209 1.520 10000.000 0.000 -1.000
55 165.00 1500.00 150 193 1.520 10000.000 0.000 -1.000
56 168.00 1500.00 141 238 1.520 10000.000 0.000 -1.000
57 171.00 1500.00 150 235 1.520 10000.000 0.000 -1.000
58 174.00 1500.00 155 255 1.520 10000.000 0.000 -1.000
59 177.00 1500.00 140 297 1.520 10000.000 0.000 -1.000
60 180.00 1500.00 135 392 1.520 10000.000 0.000 -1.000
61 183.00 1500.00 161 445 1.520 10000.000 0.000 -1.000
62 186.00 1500.00 184 490 1.520 10000.000 0.000 -1.000
63 189.00 1500.00 148 546 1.520 10000.000 0.000 -1.000
64 192.00 1500.00 163 598 1.520 10000.000 0.000 -1.000
65 195.00 1500.00 172 566 1.520 10000.000 0.000 -1.000
66 198.00 1500.00 154 573 1.520 10000.000 0.000 -1.000
67 201.00 1500.00 162 592 1.520 10000.000 0.000 -1.000
68 204.00 1500.00 148 574 1.520 10000.000 0.000 -1.000
69 207.00 1500.00 158 529 1.520 10000.000 0.000 -1.000
70 210.00 1500.00 173 519 1.520 10000.000 0.000 -1.000
71 213.00 1500.00 159 457 1.520 10000.000 0.000 -1.000
72 216.00 1500.00 173 427 1.520 10000.000 0.000 -1.000
73 219.00 1500.00 162 377 1.520 10000.000 0.000 -1.000
74 222.00 1500.00 190 296 1.520 10000.000 0.000 -1.000
75 225.00 1500.00 167 262 1.520 10000.000 0.000 -1.000
76 228.00 1500.00 210 255 1.520 10000.000 0.000 -1.000
77 231.00 1500.00 209 207 1.520 10000.000 0.000 -1.000
78 234.00 1500.00 186 193 1.520 10000.000 0.000 -1.000
79 237.00 1500.00 171 205 1.520 10000.000 0.000 -1.000
80 240.00 1500.00 194 190 1.520 10000.000 0.000 -1.000
81 243.00 1500.00 183 181 1.520 10000.000 0.000 -1.000
82 246.00 1500.00 171 171 1.520 10000.000 0.000 -1.000
83 249.00 1500.00 180 189 1.520 10000.000 0.000 -1.000
84 252.00 1500.00 145 197 1.520 10000.000 0.000 -1.000
85 255.00 1500.00 172 182 1.520 10000.000 0.000 -1.000
86 258.00 1500.00 164 199 1.520 10000.000 0.000 -1.000
87 261.00 1500.00 144 183 1.520 10000.000 0.000 -1.000
88 264.00 1500.00 137 212 1.520 10000.000 0.000 -1.000
89 267.00 1500.00 126 204 1.520 10000.000 0.000 -1.000
90 270.00 1500.00 132 246 1.520 10000.000 0.000 -1.000
91 273.00 1500.00 146 273 1.520 10000.000 0.000 -1.000
92 276.00 1500.00 167 301 1.520 10000.000 0.000 -1.000
93 279.00 1500.00 168 364 1.520 10000.000 0.000 -1.000
94 282.00 1500.00 154 409 1.520 10000.000 0.000 -1.000
95 285.00 1500.00 130 494 1.520 10000.000 0.000 -1.000
96 288.00 1500.00 155 507 1.520 10000.000 0.000 -1.000
97 291.00 1500.00 171 497 1.520 10000.000 0.000 -1.000
98 294.00 1500.00 140 575 1.520 10000.000 0.000 -1.000
99 297.00 1500.00 147 569 1.520 10000.000 0.000 -1.000
100 300.00 1500.00 147 594 1.520 10000.000 0.000 -1.000
101 303.00 1500.00 131 602 1.520 10000.000 0.000 -1.000
102 306.00 1500.00 138 566 1.520 10000.000 0.000 -1.000
103 309.00 1500.00 142 505 1.520 10000.000 0.000 -1.000
104 312.00 1500.00 145 465 1.520 10000.000 0.000 -1.000
105 315.00 1500.00 125 392 1.520 10000.000 0.000 -1.000
106 318.00 1500.00 136 341 1.520 10000.000 0.000 -1.000
107 321.00 1500.00 147 310 1.520 10000.000 0.000 -1.000
108 324.00 1500.00 138 311 1.520 10000.000 0.000 -1.000
109 327.00 1500.00 172 236 1.520 10000.000 0.000 -1.000
110 330.00 1500.00 150 225 1.520 10000.000 0.000 -1.000
111 333.00 1500.00 157 212 1.520 10000.000 0.000 -1.000
112 336.00 1500.00 175 204 1.520 10000.000 0.000 -1.000
113 339.00 1500.00 157 182 1.520 10000.000 0.000 -1.000
114 342.00 1500.00 161 179 1.520 10000.000 0.000 -1.000
115 345.00 1500.00 158 163 1.520 10000.000 0.000 -1.000
116 348.00 1500.00 175 195 1.520 10000.000 0.000 -1.000
117 351.00 1500.00 156 202 1.520 10000.000 0.000 -1.000
118 354.00 1500.00 175 179 1.520 10000.000 0.000 -1.000
119 357.00 1500.00 185 224 1.520 10000.000 0.000 -1.000
120 360.00 1500.00 190 197 1.520 10000.000 0.000 -1.000
121 363.00 1500.00 184 162 1.520 10000.000 0.000 -1.000
122 366.00 1500.00 214 202 1.520 10000.000 0.000 -1.000
123 369.00 1500.00 203 214 1.520 10000.000 0.000 -1.000
124 372.00 1500.00 178 251 1.520 10000.000 0.000 -1.000
125 375.00 1500.00 155 302 1.520 10000.000 0.000 -1.000
126 378.00 1500.00 167 377 1.520 10000.000 0.000 -1.000
127 381.00 1500.00 189 410 1.520 10000.000 0.000 -1.000
128 384.00 1500.00 183 488 1.520 10000.000 0.000 -1.000
129 387.00 1500.00 159 500 1.520 10000.000 0.000 -1.000
130 390.00 1500.00 150 532 1.520 10000.000 0.000 -1.000
131 393.00 1500.00 141 562 1.520 10000.000 0.000 -1.000
132 396.00 1500.00 168 569 1.520 10000.000 0.000 -1.000
133 399.00 1500.00 147 576 1.520 10000.000 0.000 -1.000
134 402.00 1500.00 168 556 1.520 10000.000 0.000 -1.000
135 405.00 1500.00 154 518 1.520 10000.000 0.000 -1.000
136 408.00 1500.00 129 520 1.520 10000.000 0.000 -1.000
137 411.00 1500.00 148 466 1.520 10000.000 0.000 -1.000
138 414.00 1500.00 156 462 1.520 10000.000 0.000 -1.000
139 417.00 1500.00 148 375 1.520 10000.000 0.000 -1.000
140 420.00 1500.00 176 319 1.520 10000.000 0.000 -1.000
141 423.00 1500.00 151 291 1.520 10000.000 0.000 -1.000
142 426.00 1500.00 167 260 1.520 10000.000 0.000 -1.000
143 429.00 1500.00 149 258 1.520 10000.000 0.000 -1.000
144 432.00 1500.00 153 194 1.520 10000.000 0.000 -1.000
