# BinNR microsec tot-time (s)  O-Beam AUX Ampl(V) f(Hz) phase(deg) chi(pos)
0 0.00 1500.01 198 622 1.520 10000.000 0.000 -0.165
1 3.00 1500.01 425 1355 1.520 10000.000 0.000 -0.165
2 6.00 1500.01 406 1320 1.520 10000.000 0.000 -0.165
3 9.00 1500.01 408 1331 1.520 10000.000 0.000 -0.165
4 12.00 1500.01 442 1341 1.520 10000.000 0.000 -0.165
5 15.00 1500.01 441 1428 1.520 10000.000 0.000 -0.165
6 18.00 1500.01 443 1339 1.520 10000.000 0.000 -0.165
7 21.00 1500.01 422 1384 1.520 10000.000 0.000 -0.165
8 24.00 1500.01 415 1420 1.520 10000.000 0.000 -0.165
9 27.00 1500.01 462 1429 1.520 10000.000 0.000 -0.165
10 30.00 1500.01 446 1422 1.520 10000.000 0.000 -0.165
11 33.00 1500.01 475 1405 1.520 10000.000 0.000 -0.165
12 36.00 1500.01 459 1437 1.520 10000.000 0.000 -0.165
13 39.00 1500.01 472 1346 1.520 10000.000 0.000 -0.165
14 42.00 1500.01 450 1446 1.520 10000.000 0.000 -0.165
15 45.00 1500.01 432 1363 1.520 10000.000 0.000 -0.165
16 48.00 1500.01 461 1391 1.520 10000.000 0.000 -0.165
17 51.00 1500.01 479 1308 1.520 10000.000 0.000 -0.165
18 54.00 1500.01 446 1318 1.520 10000.000 0.000 -0.165
19 57.00 1500.01 460 1399 1.520 10000.000 0.000 -0.165
20 60.00 1500.01 432 1359 1.520 10000.000 0.000 -0.165
21 63.00 1500.01 476 1303 1.520 10000.000 0.000 -0.165
22 66.00 1500.01 453 1434 1.520 10000.000 0.000 -0.165
23 69.00 1500.01 442 1375 1.520 10000.000 0.000 -0.165
24 72.00 1500.01 386 1376 1.520 10000.000 0.000 -0.165
25 75.00 1500.01 408 1395 1.520 10000.000 0.000 -0.165
26 78.00 1500.01 423 1382 1.520 10000.000 0.000 -0.165
27 81.00 1500.01 413 1411 1.520 10000.000 0.000 -0.165
28 84.00 1500.01 404 1410 1.520 10000.000 0.000 -0.165
29 87.00 1500.01 428 1288 1.520 10000.000 0.000 -0.165
30 90.00 1500.01 391 1355 1.520 10000.000 0.000 -0.165
31 93.00 1500.01 401 1289 1.520 10000.000 0.000 -0.165
32 96.00 1500.01 410 1302 1.520 10000.000 0.000 -0.165
33 99.00 1500.01 376 1295 1.520 10000.000 0.000 -0.165
34 102.00 1500.01 420 1321 1.520 10000.000 0.000 -0.165
35 105.00 1500.01 409 1280 1.520 10000.000 0.000 -0.165
36 108.00 1500.01 408 1286 1.520 10000.000 0.000 -0.165
37 111.00 1500.01 408 1320 1.520 10000.000 0.000 -0.165
38 114.00 1500.01 419 1383 1.520 10000.000 0.000 -0.165
39 117.00 1500.01 413 1330 1.520 10000.000 0.000 -0.165
40 120.00 1500.01 486 1333 1.520 10000.000 0.000 -0.165
41 123.00 1500.01 421 1369 1.520 10000.000 0.000 -0.165
42 126.00 1500.01 444 1505 1.520 10000.000 0.000 -0.165
43 129.00 1500.01 464 1312 1.520 10000.000 0.000 -0.165
44 132.00 1500.01 459 1328 1.520 10000.000 0.000 -0.165
45 135.00 1500.01 428 1299 1.520 10000.000 0.000 -0.165
46 138.00 1500.01 420 1390 1.520 10000.000 0.000 -0.165
47 141.00 1500.01 454 1228 1.520 10000.000 0.000 -0.165
48 144.00 1500.01 499 1240 1.520 10000.000 0.000 -0.165
49 147.00 1500.01 446 1260 1.520 10000.000 0.000 -0.165
50 150.00 1500.01 445 1300 1.520 10000.000 0.000 -0.165
51 153.00 1500.01 411 1279 1.520 10000.000 0.000 -0.165
52 156.00 1500.01 487 1296 1.520 10000.000 0.000 -0.165
53 159.00 1500.01 410 1307 1.520 10000.000 0.000 -0.165
54 162.00 1500.01 439 1376 1.520 10000.000 0.000 -0.165
55 165.00 1500.01 441 1395 1.520 10000.000 0.000 -0.165
56 168.00 1500.01 449 1377 1.520 10000.000 0.000 -0.165
57 171.00 1500.01 440 1369 1.520 10000.000 0.000 -0.165
58 174.00 1500.01 417 1438 1.520 10000.000 0.000 -0.165
59 177.00 1500.01 402 1398 1.520 10000.000 0.000 -0.165
60 180.00 1500.01 405 1370 1.520 10000.000 0.000 -0.165
61 183.00 1500.01 402 1321 1.520 10000.000 0.000 -0.165
62 186.00 1500.01 374 1317 1.520 10000.000 0.000 -0.165
63 189.00 1500.01 366 1344 1.520 10000.000 0.000 -0.165
64 192.00 1500.01 372 1241 1.520 10000.000 0.000 -0.165
65 195.00 1500.01 348 1325 1.520 10000.000 0.000 -0.165
66 198.00 1500.01 415 1290 1.520 10000.000 0.000 -0.165
67 201.00 1500.01 422 1242 1.520 10000.000 0.000 -0.165
68 204.00 1500.01 391 1304 1.520 10000.000 0.000 -0.165
69 207.00 1500.01 449 1345 1.520 10000.000 0.000 -0.165
70 210.00 1500.01 436 1377 1.520 10000.000 0.000 -0.165
71 213.00 1500.01 454 1335 1.520 10000.000 0.000 -0.165
72 216.00 1500.01 425 1346 1.520 10000.000 0.000 -0.165
73 219.00 1500.01 420 1324 1.520 10000.000 0.000 -0.165
74 222.00 1500.01 420 1366 1.520 10000.000 0.000 -0.165
75 225.00 1500.01 471 1431 1.520 10000.000 0.000 -0.165
76 228.00 1500.01 426 1479 1.520 10000.000 0.000 -0.165
77 231.00 1500.01 444 1365 1.520 10000.000 0.000 -0.165
78 234.00 1500.01 484 1304 1.520 10000.000 0.000 -0.165
79 237.00 1500.01 379 1380 1.520 10000.000 0.000 -0.165
80 240.00 1500.01 424 1345 1.520 10000.000 0.000 -0.165
81 243.00 1500.01 439 1257 1.520 10000.000 0.000 -0.165
82 246.00 1500.01 455 1332 1.520 10000.000 0.000 -0.165
83 249.00 1500.01 452 1321 1.520 10000.000 0.000 -0.165
84 252.00 1500.01 429 1307 1.520 10000.000 0.000 -0.165
85 255.00 1500.01 488 1285 1.520 10000.000 0.000 -0.165
86 258.00 1500.01 486 1343 1.520 10000.000 0.000 -0.165
87 261.00 1500.01 420 1396 1.520 10000.000 0.000 -0.165
88 264.00 1500.01 404 1480 1.520 10000.000 0.000 -0.165
89 267.00 1500.01 412 1365 1.520 10000.000 0.000 -0.165
90 270.00 1500.01 453 1410 1.520 10000.000 0.000 -0.165
91 273.00 1500.01 358 1393 1.520 10000.000 0.000 -0.165
92 276.00 1500.01 404 1429 1.520 10000.000 0.000 -0.165
93 279.00 1500.01 411 1418 1.520 10000.000 0.000 -0.165
94 282.00 1500.01 420 1428 1.520 10000.000 0.000 -0.165
95 285.00 1500.01 409 1363 1.520 10000.000 0.000 -0.165
96 288.00 1500.01 395 1301 1.520 10000.000 0.000 -0.165
97 291.00 1500.01 413 1360 1.520 10000.000 0.000 -0.165
98 294.00 1500.01 457 1375 1.520 10000.000 0.000 -0.165
99 297.00 1500.01 445 1300 1.520 10000.000 0.000 -0.165
100 300.00 1500.01 448 1254 1.520 10000.000 0.000 -0.165
101 303.00 1500.01 479 1227 1.520 10000.000 0.000 -0.165
102 306.00 1500.01 449 1381 1.520 10000.000 0.000 -0.165
103 309.00 1500.01 466 1264 1.520 10000.000 0.000 -0.165
104 312.00 1500.01 432 1367 1.520 10000.000 0.000 -0.165
105 315.00 1500.01 429 1393 1.520 10000.000 0.000 -0.165
106 318.00 1500.01 442 1464 1.520 10000.000 0.000 -0.165
107 321.00 1500.01 422 1349 1.520 10000.000 0.000 -0.165
108 324.00 1500.01 424 1386 1.520 10000.000 0.000 -0.165
109 327.00 1500.01 425 1435 1.520 10000.000 0.000 -0.165
110 330.00 1500.01 405 1358 1.520 10000.000 0.000 -0.165
111 333.00 1500.01 404 1344 1.520 10000.000 0.000 -0.165
112 336.00 1500.01 401 1375 1.520 10000.000 0.000 -0.165
113 339.00 1500.01 459 1280 1.520 10000.000 0.000 -0.165
114 342.00 1500.01 427 1356 1.520 10000.000 0.000 -0.165
115 345.00 1500.01 426 1345 1.520 10000.000 0.000 -0.165
116 348.00 1500.01 458 1315 1.520 10000.000 0.000 -0.165
117 351.00 1500.01 432 1288 1.520 10000.000 0.000 -0.165
118 354.00 1500.01 442 1332 1.520 10000.000 0.000 -0.165
119 357.00 1500.01 437 1311 1.520 10000.000 0.000 -0.165
120 360.00 1500.01 437 1381 1.520 10000.000 0.000 -0.165
121 363.00 1500.01 443 1381 1.520 10000.000 0.000 -0.165
122 366.00 1500.01 447 1382 1.520 10000.000 0.000 -0.165
123 369.00 1500.01 391 1435 1.520 10000.000 0.000 -0.165
124 372.00 1500.01 465 1423 1.520 10000.000 0.000 -0.165
125 375.00 1500.01 461 1451 1.520 10000.000 0.000 -0.165
126 378.00 1500.01 490 1451 1.520 10000.000 0.000 -0.165
127 381.00 1500.01 465 1373 1.520 10000.000 0.000 -0.165
128 384.00 1500.01 461 1417 1.520 10000.000 0.000 -0.165
129 387.00 1500.01 488 1265 1.520 10000.000 0.000 -0.165
130 390.00 1500.01 474 1284 1.520 10000.000 0.000 -0.165
131 393.00 1500.01 427 1231 1.520 10000.000 0.000 -0.165
132 396.00 1500.01 428 1292 1.520 10000.000 0.000 -0.165
133 399.00 1500.01 446 1287 1.520 10000.000 0.000 -0.165
134 402.00 1500.01 429 1331 1.520 10000.000 0.000 -0.165
135 405.00 1500.01 407 1349 1.520 10000.000 0.000 -0.165
136 408.00 1500.01 416 1258 1.520 10000.000 0.000 -0.165
137 411.00 1500.01 402 1320 1.520 10000.000 0.000 -0.165
138 414.00 1500.01 385 1300 1.520 10000.000 0.000 -0.165
139 417.00 1500.01 391 1357 1.520 10000.000 0.000 -0.165
140 420.00 1500.01 425 1467 1.520 10000.000 0.000 -0.165
141 423.00 1500.01 385 1397 1.520 10000.000 0.000 -0.165
142 426.00 1500.01 364 1419 1.520 10000.000 0.000 -0.165
143 429.00 1500.01 403 1362 1.520 10000.000 0.000 -0.165
144 432.00 1500.01 393 1397 1.520 10000.000 0.000 -0.165
