# BinNR microsec tot-time (s)  O-Beam H-beam AUX Ampl(V) f(Hz) phase(deg) chi(pos)
0 0.00 1200.00 406 588 1 0.000 5.373 2000.000 1.362
1 25.00 1200.00 393 603 1 0.000 5.373 2000.000 1.362
2 50.00 1200.00 400 657 3 0.000 5.373 2000.000 1.362
3 75.00 1200.00 391 752 2 0.000 5.373 2000.000 1.362
4 100.00 1200.00 388 821 3 0.000 5.373 2000.000 1.362
5 125.00 1200.00 368 796 2 0.000 5.373 2000.000 1.362
6 150.00 1200.00 387 731 2 0.000 5.373 2000.000 1.362
7 175.00 1200.00 326 740 3 0.000 5.373 2000.000 1.362
8 200.00 1200.00 236 746 1 0.000 5.373 2000.000 1.362
9 225.00 1200.00 198 806 1 0.000 5.373 2000.000 1.362
10 250.00 1200.00 208 821 0 0.000 5.373 2000.000 1.362
11 275.00 1200.00 226 849 2 0.000 5.373 2000.000 1.362
12 300.00 1200.00 249 739 5 0.000 5.373 2000.000 1.362
13 325.00 1200.00 242 706 1 0.000 5.373 2000.000 1.362
14 350.00 1200.00 215 649 2 0.000 5.373 2000.000 1.362
15 375.00 1200.00 182 600 0 0.000 5.373 2000.000 1.362
16 400.00 1200.00 232 622 2 0.000 5.373 2000.000 1.362
17 425.00 1200.00 269 634 2 0.000 5.373 2000.000 1.362
18 450.00 1200.00 354 625 2 0.000 5.373 2000.000 1.362
19 475.00 1200.00 403 654 2 0.000 5.373 2000.000 1.362
20 500.00 1200.00 365 604 0 0.000 5.373 2000.000 1.362
21 525.00 1200.00 391 620 1 0.000 5.373 2000.000 1.362
22 550.00 1200.00 374 710 1 0.000 5.373 2000.000 1.362
23 575.00 1200.00 366 743 6 0.000 5.373 2000.000 1.362
24 600.00 1200.00 401 772 2 0.000 5.373 2000.000 1.362
25 625.00 1200.00 417 801 4 0.000 5.373 2000.000 1.362
26 650.00 1200.00 360 812 0 0.000 5.373 2000.000 1.362
27 675.00 1200.00 306 773 2 0.000 5.373 2000.000 1.362
28 700.00 1200.00 215 757 4 0.000 5.373 2000.000 1.362
29 725.00 1200.00 201 735 3 0.000 5.373 2000.000 1.362
30 750.00 1200.00 224 823 3 0.000 5.373 2000.000 1.362
31 775.00 1200.00 228 797 4 0.000 5.373 2000.000 1.362
32 800.00 1200.00 231 722 2 0.000 5.373 2000.000 1.362
33 825.00 1200.00 210 715 4 0.000 5.373 2000.000 1.362
34 850.00 1200.00 206 605 2 0.000 5.373 2000.000 1.362
35 875.00 1200.00 222 601 1 0.000 5.373 2000.000 1.362
36 900.00 1200.00 226 654 2 0.000 5.373 2000.000 1.362
37 925.00 1200.00 313 585 2 0.000 5.373 2000.000 1.362
38 950.00 1200.00 363 595 1 0.000 5.373 2000.000 1.362
39 975.00 1200.00 406 611 1 0.000 5.373 2000.000 1.362
