# BinNR microsec tot-time (s)  O-Beam AUX Ampl(V) f(Hz) phase(deg) chi(pos)
0 0.00 1500.02 56 97 0.740 10000.000 0.000 -0.670
1 3.00 1500.02 118 197 0.740 10000.000 0.000 -0.670
2 6.00 1500.02 134 169 0.740 10000.000 0.000 -0.670
3 9.00 1500.02 123 193 0.740 10000.000 0.000 -0.670
4 12.00 1500.02 142 204 0.740 10000.000 0.000 -0.670
5 15.00 1500.02 134 222 0.740 10000.000 0.000 -0.670
6 18.00 1500.02 119 223 0.740 10000.000 0.000 -0.670
7 21.00 1500.02 120 201 0.740 10000.000 0.000 -0.670
8 24.00 1500.02 114 207 0.740 10000.000 0.000 -0.670
9 27.00 1500.02 122 215 0.740 10000.000 0.000 -0.670
10 30.00 1500.02 150 221 0.740 10000.000 0.000 -0.670
11 33.00 1500.02 130 220 0.740 10000.000 0.000 -0.670
12 36.00 1500.02 130 218 0.740 10000.000 0.000 -0.670
13 39.00 1500.02 124 217 0.740 10000.000 0.000 -0.670
14 42.00 1500.02 105 213 0.740 10000.000 0.000 -0.670
15 45.00 1500.02 121 222 0.740 10000.000 0.000 -0.670
16 48.00 1500.02 122 198 0.740 10000.000 0.000 -0.670
17 51.00 1500.02 128 176 0.740 10000.000 0.000 -0.670
18 54.00 1500.02 115 221 0.740 10000.000 0.000 -0.670
19 57.00 1500.02 120 206 0.740 10000.000 0.000 -0.670
20 60.00 1500.02 118 226 0.740 10000.000 0.000 -0.670
21 63.00 1500.02 105 203 0.740 10000.000 0.000 -0.670
22 66.00 1500.02 120 232 0.740 10000.000 0.000 -0.670
23 69.00 1500.02 125 237 0.740 10000.000 0.000 -0.670
24 72.00 1500.02 113 230 0.740 10000.000 0.000 -0.670
25 75.00 1500.02 119 223 0.740 10000.000 0.000 -0.670
26 78.00 1500.02 103 204 0.740 10000.000 0.000 -0.670
27 81.00 1500.02 104 218 0.740 10000.000 0.000 -0.670
28 84.00 1500.02 110 225 0.740 10000.000 0.000 -0.670
29 87.00 1500.02 107 247 0.740 10000.000 0.000 -0.670
30 90.00 1500.02 112 271 0.740 10000.000 0.000 -0.670
31 93.00 1500.02 101 278 0.740 10000.000 0.000 -0.670
32 96.00 1500.02 120 275 0.740 10000.000 0.000 -0.670
33 99.00 1500.02 122 262 0.740 10000.000 0.000 -0.670
34 102.00 1500.02 103 270 0.740 10000.000 0.000 -0.670
35 105.00 1500.02 117 263 0.740 10000.000 0.000 -0.670
36 108.00 1500.02 101 256 0.740 10000.000 0.000 -0.670
37 111.00 1500.02 98 221 0.740 10000.000 0.000 -0.670
38 114.00 1500.02 109 251 0.740 10000.000 0.000 -0.670
39 117.00 1500.02 100 244 0.740 10000.000 0.000 -0.670
40 120.00 1500.02 141 227 0.740 10000.000 0.000 -0.670
41 123.00 1500.02 102 233 0.740 10000.000 0.000 -0.670
42 126.00 1500.02 140 208 0.740 10000.000 0.000 -0.670
43 129.00 1500.02 124 212 0.740 10000.000 0.000 -0.670
44 132.00 1500.02 149 211 0.740 10000.000 0.000 -0.670
45 135.00 1500.02 114 208 0.740 10000.000 0.000 -0.670
46 138.00 1500.02 113 208 0.740 10000.000 0.000 -0.670
47 141.00 1500.02 128 188 0.740 10000.000 0.000 -0.670
48 144.00 1500.02 136 207 0.740 10000.000 0.000 -0.670
49 147.00 1500.02 120 192 0.740 10000.000 0.000 -0.670
50 150.00 1500.02 104 216 0.740 10000.000 0.000 -0.670
51 153.00 1500.02 127 182 0.740 10000.000 0.000 -0.670
52 156.00 1500.02 114 187 0.740 10000.000 0.000 -0.670
53 159.00 1500.02 99 198 0.740 10000.000 0.000 -0.670
54 162.00 1500.02 130 220 0.740 10000.000 0.000 -0.670
55 165.00 1500.02 110 219 0.740 10000.000 0.000 -0.670
56 168.00 1500.02 99 210 0.740 10000.000 0.000 -0.670
57 171.00 1500.02 104 199 0.740 10000.000 0.000 -0.670
58 174.00 1500.02 133 238 0.740 10000.000 0.000 -0.670
59 177.00 1500.02 98 224 0.740 10000.000 0.000 -0.670
60 180.00 1500.02 96 242 0.740 10000.000 0.000 -0.670
61 183.00 1500.02 116 221 0.740 10000.000 0.000 -0.670
62 186.00 1500.02 102 225 0.740 10000.000 0.000 -0.670
63 189.00 1500.02 103 269 0.740 10000.000 0.000 -0.670
64 192.00 1500.02 114 267 0.740 10000.000 0.000 -0.670
65 195.00 1500.02 107 232 0.740 10000.000 0.000 -0.670
66 198.00 1500.02 97 293 0.740 10000.000 0.000 -0.670
67 201.00 1500.02 122 288 0.740 10000.000 0.000 -0.670
68 204.00 1500.02 106 258 0.740 10000.000 0.000 -0.670
69 207.00 1500.02 113 246 0.740 10000.000 0.000 -0.670
70 210.00 1500.02 118 241 0.740 10000.000 0.000 -0.670
71 213.00 1500.02 134 220 0.740 10000.000 0.000 -0.670
72 216.00 1500.02 117 260 0.740 10000.000 0.000 -0.670
73 219.00 1500.02 129 249 0.740 10000.000 0.000 -0.670
74 222.00 1500.02 146 240 0.740 10000.000 0.000 -0.670
75 225.00 1500.02 124 214 0.740 10000.000 0.000 -0.670
76 228.00 1500.02 121 209 0.740 10000.000 0.000 -0.670
77 231.00 1500.02 106 215 0.740 10000.000 0.000 -0.670
78 234.00 1500.02 134 206 0.740 10000.000 0.000 -0.670
79 237.00 1500.02 129 194 0.740 10000.000 0.000 -0.670
80 240.00 1500.02 141 192 0.740 10000.000 0.000 -0.670
81 243.00 1500.02 125 170 0.740 10000.000 0.000 -0.670
82 246.00 1500.02 124 198 0.740 10000.000 0.000 -0.670
83 249.00 1500.02 120 215 0.740 10000.000 0.000 -0.670
84 252.00 1500.02 144 175 0.740 10000.000 0.000 -0.670
85 255.00 1500.02 147 193 0.740 10000.000 0.000 -0.670
86 258.00 1500.02 141 204 0.740 10000.000 0.000 -0.670
87 261.00 1500.02 94 176 0.740 10000.000 0.000 -0.670
88 264.00 1500.02 112 212 0.740 10000.000 0.000 -0.670
89 267.00 1500.02 103 212 0.740 10000.000 0.000 -0.670
90 270.00 1500.02 118 184 0.740 10000.000 0.000 -0.670
91 273.00 1500.02 119 239 0.740 10000.000 0.000 -0.670
92 276.00 1500.02 101 212 0.740 10000.000 0.000 -0.670
93 279.00 1500.02 80 248 0.740 10000.000 0.000 -0.670
94 282.00 1500.02 114 238 0.740 10000.000 0.000 -0.670
95 285.00 1500.02 109 240 0.740 10000.000 0.000 -0.670
96 288.00 1500.02 110 264 0.740 10000.000 0.000 -0.670
97 291.00 1500.02 98 277 0.740 10000.000 0.000 -0.670
98 294.00 1500.02 126 283 0.740 10000.000 0.000 -0.670
99 297.00 1500.02 128 270 0.740 10000.000 0.000 -0.670
100 300.00 1500.02 110 226 0.740 10000.000 0.000 -0.670
101 303.00 1500.02 120 274 0.740 10000.000 0.000 -0.670
102 306.00 1500.02 127 276 0.740 10000.000 0.000 -0.670
103 309.00 1500.02 99 245 0.740 10000.000 0.000 -0.670
104 312.00 1500.02 137 251 0.740 10000.000 0.000 -0.670
105 315.00 1500.02 113 223 0.740 10000.000 0.000 -0.670
106 318.00 1500.02 113 247 0.740 10000.000 0.000 -0.670
107 321.00 1500.02 111 243 0.740 10000.000 0.000 -0.670
108 324.00 1500.02 109 216 0.740 10000.000 0.000 -0.670
109 327.00 1500.02 114 210 0.740 10000.000 0.000 -0.670
110 330.00 1500.02 90 199 0.740 10000.000 0.000 -0.670
111 333.00 1500.02 110 214 0.740 10000.000 0.000 -0.670
112 336.00 1500.02 105 203 0.740 10000.000 0.000 -0.670
113 339.00 1500.02 106 182 0.740 10000.000 0.000 -0.670
114 342.00 1500.02 106 206 0.740 10000.000 0.000 -0.670
115 345.00 1500.02 115 213 0.740 10000.000 0.000 -0.670
116 348.00 1500.02 101 187 0.740 10000.000 0.000 -0.670
117 351.00 1500.02 132 186 0.740 10000.000 0.000 -0.670
118 354.00 1500.02 138 208 0.740 10000.000 0.000 -0.670
119 357.00 1500.02 130 186 0.740 10000.000 0.000 -0.670
120 360.00 1500.02 129 224 0.740 10000.000 0.000 -0.670
121 363.00 1500.02 132 206 0.740 10000.000 0.000 -0.670
122 366.00 1500.02 123 208 0.740 10000.000 0.000 -0.670
123 369.00 1500.02 137 207 0.740 10000.000 0.000 -0.670
124 372.00 1500.02 126 219 0.740 10000.000 0.000 -0.670
125 375.00 1500.02 149 223 0.740 10000.000 0.000 -0.670
126 378.00 1500.02 122 231 0.740 10000.000 0.000 -0.670
127 381.00 1500.02 146 235 0.740 10000.000 0.000 -0.670
128 384.00 1500.02 121 248 0.740 10000.000 0.000 -0.670
129 387.00 1500.02 97 225 0.740 10000.000 0.000 -0.670
130 390.00 1500.02 123 275 0.740 10000.000 0.000 -0.670
131 393.00 1500.02 121 253 0.740 10000.000 0.000 -0.670
132 396.00 1500.02 133 258 0.740 10000.000 0.000 -0.670
133 399.00 1500.02 130 266 0.740 10000.000 0.000 -0.670
134 402.00 1500.02 149 275 0.740 10000.000 0.000 -0.670
135 405.00 1500.02 105 283 0.740 10000.000 0.000 -0.670
136 408.00 1500.02 118 248 0.740 10000.000 0.000 -0.670
137 411.00 1500.02 106 228 0.740 10000.000 0.000 -0.670
138 414.00 1500.02 115 235 0.740 10000.000 0.000 -0.670
139 417.00 1500.02 103 236 0.740 10000.000 0.000 -0.670
140 420.00 1500.02 131 241 0.740 10000.000 0.000 -0.670
141 423.00 1500.02 99 234 0.740 10000.000 0.000 -0.670
142 426.00 1500.02 127 219 0.740 10000.000 0.000 -0.670
143 429.00 1500.02 98 215 0.740 10000.000 0.000 -0.670
144 432.00 1500.02 112 196 0.740 10000.000 0.000 -0.670
