# BinNR microsec tot-time (s)  O-Beam AUX Ampl(V) f(Hz) phase(deg) chi(pos)
0 0.00 1500.00 116 311 0.740 10000.000 0.000 -1.505
1 3.00 1500.00 203 610 0.740 10000.000 0.000 -1.505
2 6.00 1500.00 231 656 0.740 10000.000 0.000 -1.505
3 9.00 1500.00 228 651 0.740 10000.000 0.000 -1.505
4 12.00 1500.00 231 658 0.740 10000.000 0.000 -1.505
5 15.00 1500.00 218 618 0.740 10000.000 0.000 -1.505
6 18.00 1500.00 222 680 0.740 10000.000 0.000 -1.505
7 21.00 1500.00 195 658 0.740 10000.000 0.000 -1.505
8 24.00 1500.00 210 640 0.740 10000.000 0.000 -1.505
9 27.00 1500.00 199 642 0.740 10000.000 0.000 -1.505
10 30.00 1500.00 203 672 0.740 10000.000 0.000 -1.505
11 33.00 1500.00 206 657 0.740 10000.000 0.000 -1.505
12 36.00 1500.00 214 683 0.740 10000.000 0.000 -1.505
13 39.00 1500.00 215 626 0.740 10000.000 0.000 -1.505
14 42.00 1500.00 214 652 0.740 10000.000 0.000 -1.505
15 45.00 1500.00 207 670 0.740 10000.000 0.000 -1.505
16 48.00 1500.00 214 669 0.740 10000.000 0.000 -1.505
17 51.00 1500.00 214 611 0.740 10000.000 0.000 -1.505
18 54.00 1500.00 214 654 0.740 10000.000 0.000 -1.505
19 57.00 1500.00 210 665 0.740 10000.000 0.000 -1.505
20 60.00 1500.00 215 692 0.740 10000.000 0.000 -1.505
21 63.00 1500.00 205 645 0.740 10000.000 0.000 -1.505
22 66.00 1500.00 200 682 0.740 10000.000 0.000 -1.505
23 69.00 1500.00 235 630 0.740 10000.000 0.000 -1.505
24 72.00 1500.00 226 675 0.740 10000.000 0.000 -1.505
25 75.00 1500.00 220 639 0.740 10000.000 0.000 -1.505
26 78.00 1500.00 218 680 0.740 10000.000 0.000 -1.505
27 81.00 1500.00 239 669 0.740 10000.000 0.000 -1.505
28 84.00 1500.00 221 585 0.740 10000.000 0.000 -1.505
29 87.00 1500.00 221 643 0.740 10000.000 0.000 -1.505
30 90.00 1500.00 202 633 0.740 10000.000 0.000 -1.505
31 93.00 1500.00 208 607 0.740 10000.000 0.000 -1.505
32 96.00 1500.00 207 631 0.740 10000.000 0.000 -1.505
33 99.00 1500.00 216 613 0.740 10000.000 0.000 -1.505
34 102.00 1500.00 182 682 0.740 10000.000 0.000 -1.505
35 105.00 1500.00 213 607 0.740 10000.000 0.000 -1.505
36 108.00 1500.00 221 631 0.740 10000.000 0.000 -1.505
37 111.00 1500.00 254 590 0.740 10000.000 0.000 -1.505
38 114.00 1500.00 206 618 0.740 10000.000 0.000 -1.505
39 117.00 1500.00 212 629 0.740 10000.000 0.000 -1.505
40 120.00 1500.00 185 668 0.740 10000.000 0.000 -1.505
41 123.00 1500.00 201 625 0.740 10000.000 0.000 -1.505
42 126.00 1500.00 219 630 0.740 10000.000 0.000 -1.505
43 129.00 1500.00 228 692 0.740 10000.000 0.000 -1.505
44 132.00 1500.00 195 644 0.740 10000.000 0.000 -1.505
45 135.00 1500.00 229 633 0.740 10000.000 0.000 -1.505
46 138.00 1500.00 197 637 0.740 10000.000 0.000 -1.505
47 141.00 1500.00 206 650 0.740 10000.000 0.000 -1.505
48 144.00 1500.00 173 666 0.740 10000.000 0.000 -1.505
49 147.00 1500.00 213 629 0.740 10000.000 0.000 -1.505
50 150.00 1500.00 243 683 0.740 10000.000 0.000 -1.505
51 153.00 1500.00 225 630 0.740 10000.000 0.000 -1.505
52 156.00 1500.00 232 618 0.740 10000.000 0.000 -1.505
53 159.00 1500.00 220 644 0.740 10000.000 0.000 -1.505
54 162.00 1500.00 208 622 0.740 10000.000 0.000 -1.505
55 165.00 1500.00 210 615 0.740 10000.000 0.000 -1.505
56 168.00 1500.00 218 659 0.740 10000.000 0.000 -1.505
57 171.00 1500.00 215 616 0.740 10000.000 0.000 -1.505
58 174.00 1500.00 234 659 0.740 10000.000 0.000 -1.505
59 177.00 1500.00 205 649 0.740 10000.000 0.000 -1.505
60 180.00 1500.00 220 632 0.740 10000.000 0.000 -1.505
61 183.00 1500.00 235 609 0.740 10000.000 0.000 -1.505
62 186.00 1500.00 221 653 0.740 10000.000 0.000 -1.505
63 189.00 1500.00 223 590 0.740 10000.000 0.000 -1.505
64 192.00 1500.00 221 624 0.740 10000.000 0.000 -1.505
65 195.00 1500.00 229 593 0.740 10000.000 0.000 -1.505
66 198.00 1500.00 201 605 0.740 10000.000 0.000 -1.505
67 201.00 1500.00 231 614 0.740 10000.000 0.000 -1.505
68 204.00 1500.00 243 631 0.740 10000.000 0.000 -1.505
69 207.00 1500.00 209 597 0.740 10000.000 0.000 -1.505
70 210.00 1500.00 216 637 0.740 10000.000 0.000 -1.505
71 213.00 1500.00 219 612 0.740 10000.000 0.000 -1.505
72 216.00 1500.00 233 650 0.740 10000.000 0.000 -1.505
73 219.00 1500.00 217 627 0.740 10000.000 0.000 -1.505
74 222.00 1500.00 219 635 0.740 10000.000 0.000 -1.505
75 225.00 1500.00 221 620 0.740 10000.000 0.000 -1.505
76 228.00 1500.00 219 649 0.740 10000.000 0.000 -1.505
77 231.00 1500.00 213 606 0.740 10000.000 0.000 -1.505
78 234.00 1500.00 189 636 0.740 10000.000 0.000 -1.505
79 237.00 1500.00 207 610 0.740 10000.000 0.000 -1.505
80 240.00 1500.00 212 668 0.740 10000.000 0.000 -1.505
81 243.00 1500.00 205 697 0.740 10000.000 0.000 -1.505
82 246.00 1500.00 213 663 0.740 10000.000 0.000 -1.505
83 249.00 1500.00 176 651 0.740 10000.000 0.000 -1.505
84 252.00 1500.00 216 651 0.740 10000.000 0.000 -1.505
85 255.00 1500.00 214 634 0.740 10000.000 0.000 -1.505
86 258.00 1500.00 202 602 0.740 10000.000 0.000 -1.505
87 261.00 1500.00 214 650 0.740 10000.000 0.000 -1.505
88 264.00 1500.00 236 682 0.740 10000.000 0.000 -1.505
89 267.00 1500.00 234 654 0.740 10000.000 0.000 -1.505
90 270.00 1500.00 210 657 0.740 10000.000 0.000 -1.505
91 273.00 1500.00 211 616 0.740 10000.000 0.000 -1.505
92 276.00 1500.00 197 634 0.740 10000.000 0.000 -1.505
93 279.00 1500.00 239 643 0.740 10000.000 0.000 -1.505
94 282.00 1500.00 218 636 0.740 10000.000 0.000 -1.505
95 285.00 1500.00 231 651 0.740 10000.000 0.000 -1.505
96 288.00 1500.00 220 638 0.740 10000.000 0.000 -1.505
97 291.00 1500.00 212 614 0.740 10000.000 0.000 -1.505
98 294.00 1500.00 211 608 0.740 10000.000 0.000 -1.505
99 297.00 1500.00 187 653 0.740 10000.000 0.000 -1.505
100 300.00 1500.00 226 616 0.740 10000.000 0.000 -1.505
101 303.00 1500.00 219 630 0.740 10000.000 0.000 -1.505
102 306.00 1500.00 212 635 0.740 10000.000 0.000 -1.505
103 309.00 1500.00 221 646 0.740 10000.000 0.000 -1.505
104 312.00 1500.00 239 678 0.740 10000.000 0.000 -1.505
105 315.00 1500.00 217 607 0.740 10000.000 0.000 -1.505
106 318.00 1500.00 200 626 0.740 10000.000 0.000 -1.505
107 321.00 1500.00 224 680 0.740 10000.000 0.000 -1.505
108 324.00 1500.00 239 657 0.740 10000.000 0.000 -1.505
109 327.00 1500.00 220 664 0.740 10000.000 0.000 -1.505
110 330.00 1500.00 238 665 0.740 10000.000 0.000 -1.505
111 333.00 1500.00 231 678 0.740 10000.000 0.000 -1.505
112 336.00 1500.00 239 662 0.740 10000.000 0.000 -1.505
113 339.00 1500.00 241 590 0.740 10000.000 0.000 -1.505
114 342.00 1500.00 231 628 0.740 10000.000 0.000 -1.505
115 345.00 1500.00 209 654 0.740 10000.000 0.000 -1.505
116 348.00 1500.00 223 691 0.740 10000.000 0.000 -1.505
117 351.00 1500.00 222 664 0.740 10000.000 0.000 -1.505
118 354.00 1500.00 227 663 0.740 10000.000 0.000 -1.505
119 357.00 1500.00 226 667 0.740 10000.000 0.000 -1.505
120 360.00 1500.00 237 646 0.740 10000.000 0.000 -1.505
121 363.00 1500.00 216 558 0.740 10000.000 0.000 -1.505
122 366.00 1500.00 230 614 0.740 10000.000 0.000 -1.505
123 369.00 1500.00 213 671 0.740 10000.000 0.000 -1.505
124 372.00 1500.00 199 647 0.740 10000.000 0.000 -1.505
125 375.00 1500.00 211 655 0.740 10000.000 0.000 -1.505
126 378.00 1500.00 203 678 0.740 10000.000 0.000 -1.505
127 381.00 1500.00 215 612 0.740 10000.000 0.000 -1.505
128 384.00 1500.00 243 685 0.740 10000.000 0.000 -1.505
129 387.00 1500.00 215 606 0.740 10000.000 0.000 -1.505
130 390.00 1500.00 202 618 0.740 10000.000 0.000 -1.505
131 393.00 1500.00 226 671 0.740 10000.000 0.000 -1.505
132 396.00 1500.00 210 634 0.740 10000.000 0.000 -1.505
133 399.00 1500.00 211 594 0.740 10000.000 0.000 -1.505
134 402.00 1500.00 208 648 0.740 10000.000 0.000 -1.505
135 405.00 1500.00 208 629 0.740 10000.000 0.000 -1.505
136 408.00 1500.00 217 571 0.740 10000.000 0.000 -1.505
137 411.00 1500.00 198 658 0.740 10000.000 0.000 -1.505
138 414.00 1500.00 222 636 0.740 10000.000 0.000 -1.505
139 417.00 1500.00 215 658 0.740 10000.000 0.000 -1.505
140 420.00 1500.00 214 701 0.740 10000.000 0.000 -1.505
141 423.00 1500.00 198 675 0.740 10000.000 0.000 -1.505
142 426.00 1500.00 219 631 0.740 10000.000 0.000 -1.505
143 429.00 1500.00 223 649 0.740 10000.000 0.000 -1.505
144 432.00 1500.00 223 681 0.740 10000.000 0.000 -1.505
