# BinNR microsec tot-time (s)  O-Beam AUX Ampl(V) f(Hz) phase(deg) chi(pos)
0 0.00 1500.00 109 293 0.740 10000.000 0.000 0.659
1 3.00 1500.00 213 547 0.740 10000.000 0.000 0.659
2 6.00 1500.00 263 585 0.740 10000.000 0.000 0.659
3 9.00 1500.00 207 546 0.740 10000.000 0.000 0.659
4 12.00 1500.00 225 615 0.740 10000.000 0.000 0.659
5 15.00 1500.00 239 596 0.740 10000.000 0.000 0.659
6 18.00 1500.00 208 561 0.740 10000.000 0.000 0.659
7 21.00 1500.00 209 596 0.740 10000.000 0.000 0.659
8 24.00 1500.00 217 579 0.740 10000.000 0.000 0.659
9 27.00 1500.00 204 587 0.740 10000.000 0.000 0.659
10 30.00 1500.00 233 650 0.740 10000.000 0.000 0.659
11 33.00 1500.00 229 584 0.740 10000.000 0.000 0.659
12 36.00 1500.00 215 621 0.740 10000.000 0.000 0.659
13 39.00 1500.00 223 602 0.740 10000.000 0.000 0.659
14 42.00 1500.00 210 624 0.740 10000.000 0.000 0.659
15 45.00 1500.00 203 660 0.740 10000.000 0.000 0.659
16 48.00 1500.00 199 631 0.740 10000.000 0.000 0.659
17 51.00 1500.00 224 593 0.740 10000.000 0.000 0.659
18 54.00 1500.00 189 588 0.740 10000.000 0.000 0.659
19 57.00 1500.00 192 581 0.740 10000.000 0.000 0.659
20 60.00 1500.00 232 592 0.740 10000.000 0.000 0.659
21 63.00 1500.00 216 579 0.740 10000.000 0.000 0.659
22 66.00 1500.00 212 601 0.740 10000.000 0.000 0.659
23 69.00 1500.00 203 597 0.740 10000.000 0.000 0.659
24 72.00 1500.00 231 599 0.740 10000.000 0.000 0.659
25 75.00 1500.00 185 590 0.740 10000.000 0.000 0.659
26 78.00 1500.00 203 645 0.740 10000.000 0.000 0.659
27 81.00 1500.00 204 632 0.740 10000.000 0.000 0.659
28 84.00 1500.00 201 579 0.740 10000.000 0.000 0.659
29 87.00 1500.00 198 615 0.740 10000.000 0.000 0.659
30 90.00 1500.00 188 606 0.740 10000.000 0.000 0.659
31 93.00 1500.00 222 619 0.740 10000.000 0.000 0.659
32 96.00 1500.00 241 633 0.740 10000.000 0.000 0.659
33 99.00 1500.00 231 692 0.740 10000.000 0.000 0.659
34 102.00 1500.00 236 647 0.740 10000.000 0.000 0.659
35 105.00 1500.00 211 642 0.740 10000.000 0.000 0.659
36 108.00 1500.00 207 607 0.740 10000.000 0.000 0.659
37 111.00 1500.00 192 585 0.740 10000.000 0.000 0.659
38 114.00 1500.00 240 668 0.740 10000.000 0.000 0.659
39 117.00 1500.00 222 636 0.740 10000.000 0.000 0.659
40 120.00 1500.00 224 603 0.740 10000.000 0.000 0.659
41 123.00 1500.00 234 564 0.740 10000.000 0.000 0.659
42 126.00 1500.00 230 611 0.740 10000.000 0.000 0.659
43 129.00 1500.00 198 570 0.740 10000.000 0.000 0.659
44 132.00 1500.00 224 551 0.740 10000.000 0.000 0.659
45 135.00 1500.00 237 592 0.740 10000.000 0.000 0.659
46 138.00 1500.00 201 583 0.740 10000.000 0.000 0.659
47 141.00 1500.00 215 566 0.740 10000.000 0.000 0.659
48 144.00 1500.00 237 585 0.740 10000.000 0.000 0.659
49 147.00 1500.00 242 530 0.740 10000.000 0.000 0.659
50 150.00 1500.00 213 574 0.740 10000.000 0.000 0.659
51 153.00 1500.00 236 587 0.740 10000.000 0.000 0.659
52 156.00 1500.00 220 570 0.740 10000.000 0.000 0.659
53 159.00 1500.00 207 616 0.740 10000.000 0.000 0.659
54 162.00 1500.00 210 627 0.740 10000.000 0.000 0.659
55 165.00 1500.00 252 609 0.740 10000.000 0.000 0.659
56 168.00 1500.00 219 582 0.740 10000.000 0.000 0.659
57 171.00 1500.00 200 602 0.740 10000.000 0.000 0.659
58 174.00 1500.00 199 603 0.740 10000.000 0.000 0.659
59 177.00 1500.00 215 627 0.740 10000.000 0.000 0.659
60 180.00 1500.00 195 625 0.740 10000.000 0.000 0.659
61 183.00 1500.00 191 625 0.740 10000.000 0.000 0.659
62 186.00 1500.00 177 653 0.740 10000.000 0.000 0.659
63 189.00 1500.00 214 590 0.740 10000.000 0.000 0.659
64 192.00 1500.00 222 643 0.740 10000.000 0.000 0.659
65 195.00 1500.00 198 591 0.740 10000.000 0.000 0.659
66 198.00 1500.00 228 619 0.740 10000.000 0.000 0.659
67 201.00 1500.00 230 598 0.740 10000.000 0.000 0.659
68 204.00 1500.00 185 624 0.740 10000.000 0.000 0.659
69 207.00 1500.00 196 638 0.740 10000.000 0.000 0.659
70 210.00 1500.00 227 657 0.740 10000.000 0.000 0.659
71 213.00 1500.00 203 600 0.740 10000.000 0.000 0.659
72 216.00 1500.00 208 628 0.740 10000.000 0.000 0.659
73 219.00 1500.00 215 593 0.740 10000.000 0.000 0.659
74 222.00 1500.00 230 624 0.740 10000.000 0.000 0.659
75 225.00 1500.00 230 626 0.740 10000.000 0.000 0.659
76 228.00 1500.00 211 581 0.740 10000.000 0.000 0.659
77 231.00 1500.00 195 607 0.740 10000.000 0.000 0.659
78 234.00 1500.00 220 568 0.740 10000.000 0.000 0.659
79 237.00 1500.00 219 563 0.740 10000.000 0.000 0.659
80 240.00 1500.00 227 600 0.740 10000.000 0.000 0.659
81 243.00 1500.00 209 590 0.740 10000.000 0.000 0.659
82 246.00 1500.00 190 521 0.740 10000.000 0.000 0.659
83 249.00 1500.00 213 562 0.740 10000.000 0.000 0.659
84 252.00 1500.00 203 594 0.740 10000.000 0.000 0.659
85 255.00 1500.00 195 556 0.740 10000.000 0.000 0.659
86 258.00 1500.00 230 589 0.740 10000.000 0.000 0.659
87 261.00 1500.00 193 563 0.740 10000.000 0.000 0.659
88 264.00 1500.00 228 600 0.740 10000.000 0.000 0.659
89 267.00 1500.00 229 614 0.740 10000.000 0.000 0.659
90 270.00 1500.00 205 548 0.740 10000.000 0.000 0.659
91 273.00 1500.00 193 572 0.740 10000.000 0.000 0.659
92 276.00 1500.00 211 647 0.740 10000.000 0.000 0.659
93 279.00 1500.00 231 617 0.740 10000.000 0.000 0.659
94 282.00 1500.00 214 624 0.740 10000.000 0.000 0.659
95 285.00 1500.00 235 646 0.740 10000.000 0.000 0.659
96 288.00 1500.00 203 645 0.740 10000.000 0.000 0.659
97 291.00 1500.00 191 632 0.740 10000.000 0.000 0.659
98 294.00 1500.00 208 660 0.740 10000.000 0.000 0.659
99 297.00 1500.00 235 630 0.740 10000.000 0.000 0.659
100 300.00 1500.00 193 663 0.740 10000.000 0.000 0.659
101 303.00 1500.00 197 630 0.740 10000.000 0.000 0.659
102 306.00 1500.00 202 638 0.740 10000.000 0.000 0.659
103 309.00 1500.00 222 603 0.740 10000.000 0.000 0.659
104 312.00 1500.00 247 655 0.740 10000.000 0.000 0.659
105 315.00 1500.00 211 591 0.740 10000.000 0.000 0.659
106 318.00 1500.00 222 653 0.740 10000.000 0.000 0.659
107 321.00 1500.00 189 577 0.740 10000.000 0.000 0.659
108 324.00 1500.00 220 611 0.740 10000.000 0.000 0.659
109 327.00 1500.00 237 599 0.740 10000.000 0.000 0.659
110 330.00 1500.00 253 571 0.740 10000.000 0.000 0.659
111 333.00 1500.00 192 594 0.740 10000.000 0.000 0.659
112 336.00 1500.00 220 564 0.740 10000.000 0.000 0.659
113 339.00 1500.00 225 574 0.740 10000.000 0.000 0.659
114 342.00 1500.00 206 599 0.740 10000.000 0.000 0.659
115 345.00 1500.00 232 570 0.740 10000.000 0.000 0.659
116 348.00 1500.00 185 568 0.740 10000.000 0.000 0.659
117 351.00 1500.00 192 589 0.740 10000.000 0.000 0.659
118 354.00 1500.00 217 599 0.740 10000.000 0.000 0.659
119 357.00 1500.00 220 594 0.740 10000.000 0.000 0.659
120 360.00 1500.00 218 569 0.740 10000.000 0.000 0.659
121 363.00 1500.00 234 570 0.740 10000.000 0.000 0.659
122 366.00 1500.00 222 584 0.740 10000.000 0.000 0.659
123 369.00 1500.00 242 586 0.740 10000.000 0.000 0.659
124 372.00 1500.00 225 609 0.740 10000.000 0.000 0.659
125 375.00 1500.00 227 561 0.740 10000.000 0.000 0.659
126 378.00 1500.00 199 648 0.740 10000.000 0.000 0.659
127 381.00 1500.00 201 585 0.740 10000.000 0.000 0.659
128 384.00 1500.00 226 670 0.740 10000.000 0.000 0.659
129 387.00 1500.00 210 645 0.740 10000.000 0.000 0.659
130 390.00 1500.00 223 683 0.740 10000.000 0.000 0.659
131 393.00 1500.00 211 600 0.740 10000.000 0.000 0.659
132 396.00 1500.00 251 643 0.740 10000.000 0.000 0.659
133 399.00 1500.00 207 603 0.740 10000.000 0.000 0.659
134 402.00 1500.00 243 639 0.740 10000.000 0.000 0.659
135 405.00 1500.00 207 647 0.740 10000.000 0.000 0.659
136 408.00 1500.00 223 649 0.740 10000.000 0.000 0.659
137 411.00 1500.00 205 565 0.740 10000.000 0.000 0.659
138 414.00 1500.00 263 663 0.740 10000.000 0.000 0.659
139 417.00 1500.00 209 648 0.740 10000.000 0.000 0.659
140 420.00 1500.00 209 637 0.740 10000.000 0.000 0.659
141 423.00 1500.00 205 583 0.740 10000.000 0.000 0.659
142 426.00 1500.00 207 592 0.740 10000.000 0.000 0.659
143 429.00 1500.00 227 565 0.740 10000.000 0.000 0.659
144 432.00 1500.00 246 611 0.740 10000.000 0.000 0.659
