# BinNR microsec tot-time (s)  O-Beam AUX Ampl(V) f(Hz) phase(deg) chi(pos)
0 0.00 1500.00 79 213 0.740 10000.000 0.000 0.011
1 3.00 1500.00 156 457 0.740 10000.000 0.000 0.011
2 6.00 1500.00 169 471 0.740 10000.000 0.000 0.011
3 9.00 1500.00 161 456 0.740 10000.000 0.000 0.011
4 12.00 1500.00 129 500 0.740 10000.000 0.000 0.011
5 15.00 1500.00 143 398 0.740 10000.000 0.000 0.011
6 18.00 1500.00 127 453 0.740 10000.000 0.000 0.011
7 21.00 1500.00 147 368 0.740 10000.000 0.000 0.011
8 24.00 1500.00 108 448 0.740 10000.000 0.000 0.011
9 27.00 1500.00 146 398 0.740 10000.000 0.000 0.011
10 30.00 1500.00 146 403 0.740 10000.000 0.000 0.011
11 33.00 1500.00 137 376 0.740 10000.000 0.000 0.011
12 36.00 1500.00 152 421 0.740 10000.000 0.000 0.011
13 39.00 1500.00 137 428 0.740 10000.000 0.000 0.011
14 42.00 1500.00 143 431 0.740 10000.000 0.000 0.011
15 45.00 1500.00 120 444 0.740 10000.000 0.000 0.011
16 48.00 1500.00 167 440 0.740 10000.000 0.000 0.011
17 51.00 1500.00 131 460 0.740 10000.000 0.000 0.011
18 54.00 1500.00 172 467 0.740 10000.000 0.000 0.011
19 57.00 1500.00 144 442 0.740 10000.000 0.000 0.011
20 60.00 1500.00 147 472 0.740 10000.000 0.000 0.011
21 63.00 1500.00 162 415 0.740 10000.000 0.000 0.011
22 66.00 1500.00 163 432 0.740 10000.000 0.000 0.011
23 69.00 1500.00 159 437 0.740 10000.000 0.000 0.011
24 72.00 1500.00 173 418 0.740 10000.000 0.000 0.011
25 75.00 1500.00 163 441 0.740 10000.000 0.000 0.011
26 78.00 1500.00 174 398 0.740 10000.000 0.000 0.011
27 81.00 1500.00 168 377 0.740 10000.000 0.000 0.011
28 84.00 1500.00 171 389 0.740 10000.000 0.000 0.011
29 87.00 1500.00 160 378 0.740 10000.000 0.000 0.011
30 90.00 1500.00 173 342 0.740 10000.000 0.000 0.011
31 93.00 1500.00 168 337 0.740 10000.000 0.000 0.011
32 96.00 1500.00 154 332 0.740 10000.000 0.000 0.011
33 99.00 1500.00 168 376 0.740 10000.000 0.000 0.011
34 102.00 1500.00 176 370 0.740 10000.000 0.000 0.011
35 105.00 1500.00 146 376 0.740 10000.000 0.000 0.011
36 108.00 1500.00 177 372 0.740 10000.000 0.000 0.011
37 111.00 1500.00 151 399 0.740 10000.000 0.000 0.011
38 114.00 1500.00 178 402 0.740 10000.000 0.000 0.011
39 117.00 1500.00 153 368 0.740 10000.000 0.000 0.011
40 120.00 1500.00 137 404 0.740 10000.000 0.000 0.011
41 123.00 1500.00 138 406 0.740 10000.000 0.000 0.011
42 126.00 1500.00 154 440 0.740 10000.000 0.000 0.011
43 129.00 1500.00 133 437 0.740 10000.000 0.000 0.011
44 132.00 1500.00 155 484 0.740 10000.000 0.000 0.011
45 135.00 1500.00 120 444 0.740 10000.000 0.000 0.011
46 138.00 1500.00 114 502 0.740 10000.000 0.000 0.011
47 141.00 1500.00 143 473 0.740 10000.000 0.000 0.011
48 144.00 1500.00 129 510 0.740 10000.000 0.000 0.011
49 147.00 1500.00 164 500 0.740 10000.000 0.000 0.011
50 150.00 1500.00 152 484 0.740 10000.000 0.000 0.011
51 153.00 1500.00 155 462 0.740 10000.000 0.000 0.011
52 156.00 1500.00 160 496 0.740 10000.000 0.000 0.011
53 159.00 1500.00 154 467 0.740 10000.000 0.000 0.011
54 162.00 1500.00 169 454 0.740 10000.000 0.000 0.011
55 165.00 1500.00 167 452 0.740 10000.000 0.000 0.011
56 168.00 1500.00 173 447 0.740 10000.000 0.000 0.011
57 171.00 1500.00 161 417 0.740 10000.000 0.000 0.011
58 174.00 1500.00 149 425 0.740 10000.000 0.000 0.011
59 177.00 1500.00 149 412 0.740 10000.000 0.000 0.011
60 180.00 1500.00 178 377 0.740 10000.000 0.000 0.011
61 183.00 1500.00 173 333 0.740 10000.000 0.000 0.011
62 186.00 1500.00 179 393 0.740 10000.000 0.000 0.011
63 189.00 1500.00 163 341 0.740 10000.000 0.000 0.011
64 192.00 1500.00 161 331 0.740 10000.000 0.000 0.011
65 195.00 1500.00 176 309 0.740 10000.000 0.000 0.011
66 198.00 1500.00 162 355 0.740 10000.000 0.000 0.011
67 201.00 1500.00 156 371 0.740 10000.000 0.000 0.011
68 204.00 1500.00 169 386 0.740 10000.000 0.000 0.011
69 207.00 1500.00 163 349 0.740 10000.000 0.000 0.011
70 210.00 1500.00 164 344 0.740 10000.000 0.000 0.011
71 213.00 1500.00 137 378 0.740 10000.000 0.000 0.011
72 216.00 1500.00 154 396 0.740 10000.000 0.000 0.011
73 219.00 1500.00 135 419 0.740 10000.000 0.000 0.011
74 222.00 1500.00 150 439 0.740 10000.000 0.000 0.011
75 225.00 1500.00 148 421 0.740 10000.000 0.000 0.011
76 228.00 1500.00 145 476 0.740 10000.000 0.000 0.011
77 231.00 1500.00 126 450 0.740 10000.000 0.000 0.011
78 234.00 1500.00 125 487 0.740 10000.000 0.000 0.011
79 237.00 1500.00 150 470 0.740 10000.000 0.000 0.011
80 240.00 1500.00 131 470 0.740 10000.000 0.000 0.011
81 243.00 1500.00 125 491 0.740 10000.000 0.000 0.011
82 246.00 1500.00 140 553 0.740 10000.000 0.000 0.011
83 249.00 1500.00 161 490 0.740 10000.000 0.000 0.011
84 252.00 1500.00 143 476 0.740 10000.000 0.000 0.011
85 255.00 1500.00 160 502 0.740 10000.000 0.000 0.011
86 258.00 1500.00 179 465 0.740 10000.000 0.000 0.011
87 261.00 1500.00 146 454 0.740 10000.000 0.000 0.011
88 264.00 1500.00 145 449 0.740 10000.000 0.000 0.011
89 267.00 1500.00 164 424 0.740 10000.000 0.000 0.011
90 270.00 1500.00 158 451 0.740 10000.000 0.000 0.011
91 273.00 1500.00 153 444 0.740 10000.000 0.000 0.011
92 276.00 1500.00 184 417 0.740 10000.000 0.000 0.011
93 279.00 1500.00 195 410 0.740 10000.000 0.000 0.011
94 282.00 1500.00 153 351 0.740 10000.000 0.000 0.011
95 285.00 1500.00 146 380 0.740 10000.000 0.000 0.011
96 288.00 1500.00 158 349 0.740 10000.000 0.000 0.011
97 291.00 1500.00 168 336 0.740 10000.000 0.000 0.011
98 294.00 1500.00 159 365 0.740 10000.000 0.000 0.011
99 297.00 1500.00 170 347 0.740 10000.000 0.000 0.011
100 300.00 1500.00 162 339 0.740 10000.000 0.000 0.011
101 303.00 1500.00 148 357 0.740 10000.000 0.000 0.011
102 306.00 1500.00 130 353 0.740 10000.000 0.000 0.011
103 309.00 1500.00 165 381 0.740 10000.000 0.000 0.011
104 312.00 1500.00 141 384 0.740 10000.000 0.000 0.011
105 315.00 1500.00 155 374 0.740 10000.000 0.000 0.011
106 318.00 1500.00 165 404 0.740 10000.000 0.000 0.011
107 321.00 1500.00 159 420 0.740 10000.000 0.000 0.011
108 324.00 1500.00 163 465 0.740 10000.000 0.000 0.011
109 327.00 1500.00 170 417 0.740 10000.000 0.000 0.011
110 330.00 1500.00 165 481 0.740 10000.000 0.000 0.011
111 333.00 1500.00 154 496 0.740 10000.000 0.000 0.011
112 336.00 1500.00 145 524 0.740 10000.000 0.000 0.011
113 339.00 1500.00 165 477 0.740 10000.000 0.000 0.011
114 342.00 1500.00 157 493 0.740 10000.000 0.000 0.011
115 345.00 1500.00 138 473 0.740 10000.000 0.000 0.011
116 348.00 1500.00 159 508 0.740 10000.000 0.000 0.011
117 351.00 1500.00 150 465 0.740 10000.000 0.000 0.011
118 354.00 1500.00 142 532 0.740 10000.000 0.000 0.011
119 357.00 1500.00 146 503 0.740 10000.000 0.000 0.011
120 360.00 1500.00 145 462 0.740 10000.000 0.000 0.011
121 363.00 1500.00 151 460 0.740 10000.000 0.000 0.011
122 366.00 1500.00 136 457 0.740 10000.000 0.000 0.011
123 369.00 1500.00 137 453 0.740 10000.000 0.000 0.011
124 372.00 1500.00 128 398 0.740 10000.000 0.000 0.011
125 375.00 1500.00 159 400 0.740 10000.000 0.000 0.011
126 378.00 1500.00 130 435 0.740 10000.000 0.000 0.011
127 381.00 1500.00 136 368 0.740 10000.000 0.000 0.011
128 384.00 1500.00 151 383 0.740 10000.000 0.000 0.011
129 387.00 1500.00 153 356 0.740 10000.000 0.000 0.011
130 390.00 1500.00 149 349 0.740 10000.000 0.000 0.011
131 393.00 1500.00 155 386 0.740 10000.000 0.000 0.011
132 396.00 1500.00 150 341 0.740 10000.000 0.000 0.011
133 399.00 1500.00 151 314 0.740 10000.000 0.000 0.011
134 402.00 1500.00 164 353 0.740 10000.000 0.000 0.011
135 405.00 1500.00 161 355 0.740 10000.000 0.000 0.011
136 408.00 1500.00 189 413 0.740 10000.000 0.000 0.011
137 411.00 1500.00 179 399 0.740 10000.000 0.000 0.011
138 414.00 1500.00 159 373 0.740 10000.000 0.000 0.011
139 417.00 1500.00 166 376 0.740 10000.000 0.000 0.011
140 420.00 1500.00 191 404 0.740 10000.000 0.000 0.011
141 423.00 1500.00 172 434 0.740 10000.000 0.000 0.011
142 426.00 1500.00 157 395 0.740 10000.000 0.000 0.011
143 429.00 1500.00 215 461 0.740 10000.000 0.000 0.011
144 432.00 1500.00 158 448 0.740 10000.000 0.000 0.011
