# BinNR microsec tot-time (s)  O-Beam AUX Ampl(V) f(Hz) phase(deg) chi(pos)
0 0.00 1500.00 49 128 0.740 10000.000 0.000 -0.835
1 3.00 1500.00 122 252 0.740 10000.000 0.000 -0.835
2 6.00 1500.00 137 247 0.740 10000.000 0.000 -0.835
3 9.00 1500.00 127 264 0.740 10000.000 0.000 -0.835
4 12.00 1500.00 163 257 0.740 10000.000 0.000 -0.835
5 15.00 1500.00 147 241 0.740 10000.000 0.000 -0.835
6 18.00 1500.00 143 296 0.740 10000.000 0.000 -0.835
7 21.00 1500.00 145 304 0.740 10000.000 0.000 -0.835
8 24.00 1500.00 132 309 0.740 10000.000 0.000 -0.835
9 27.00 1500.00 155 292 0.740 10000.000 0.000 -0.835
10 30.00 1500.00 167 295 0.740 10000.000 0.000 -0.835
11 33.00 1500.00 138 298 0.740 10000.000 0.000 -0.835
12 36.00 1500.00 145 301 0.740 10000.000 0.000 -0.835
13 39.00 1500.00 158 295 0.740 10000.000 0.000 -0.835
14 42.00 1500.00 153 298 0.740 10000.000 0.000 -0.835
15 45.00 1500.00 162 263 0.740 10000.000 0.000 -0.835
16 48.00 1500.00 165 281 0.740 10000.000 0.000 -0.835
17 51.00 1500.00 123 296 0.740 10000.000 0.000 -0.835
18 54.00 1500.00 163 284 0.740 10000.000 0.000 -0.835
19 57.00 1500.00 149 276 0.740 10000.000 0.000 -0.835
20 60.00 1500.00 162 273 0.740 10000.000 0.000 -0.835
21 63.00 1500.00 118 279 0.740 10000.000 0.000 -0.835
22 66.00 1500.00 144 258 0.740 10000.000 0.000 -0.835
23 69.00 1500.00 145 288 0.740 10000.000 0.000 -0.835
24 72.00 1500.00 124 304 0.740 10000.000 0.000 -0.835
25 75.00 1500.00 134 310 0.740 10000.000 0.000 -0.835
26 78.00 1500.00 146 322 0.740 10000.000 0.000 -0.835
27 81.00 1500.00 135 336 0.740 10000.000 0.000 -0.835
28 84.00 1500.00 130 347 0.740 10000.000 0.000 -0.835
29 87.00 1500.00 134 370 0.740 10000.000 0.000 -0.835
30 90.00 1500.00 119 358 0.740 10000.000 0.000 -0.835
31 93.00 1500.00 115 382 0.740 10000.000 0.000 -0.835
32 96.00 1500.00 131 379 0.740 10000.000 0.000 -0.835
33 99.00 1500.00 133 362 0.740 10000.000 0.000 -0.835
34 102.00 1500.00 130 399 0.740 10000.000 0.000 -0.835
35 105.00 1500.00 136 348 0.740 10000.000 0.000 -0.835
36 108.00 1500.00 153 394 0.740 10000.000 0.000 -0.835
37 111.00 1500.00 128 320 0.740 10000.000 0.000 -0.835
38 114.00 1500.00 133 359 0.740 10000.000 0.000 -0.835
39 117.00 1500.00 138 326 0.740 10000.000 0.000 -0.835
40 120.00 1500.00 181 325 0.740 10000.000 0.000 -0.835
41 123.00 1500.00 150 300 0.740 10000.000 0.000 -0.835
42 126.00 1500.00 149 298 0.740 10000.000 0.000 -0.835
43 129.00 1500.00 155 246 0.740 10000.000 0.000 -0.835
44 132.00 1500.00 168 280 0.740 10000.000 0.000 -0.835
45 135.00 1500.00 156 268 0.740 10000.000 0.000 -0.835
46 138.00 1500.00 160 232 0.740 10000.000 0.000 -0.835
47 141.00 1500.00 158 238 0.740 10000.000 0.000 -0.835
48 144.00 1500.00 122 228 0.740 10000.000 0.000 -0.835
49 147.00 1500.00 147 243 0.740 10000.000 0.000 -0.835
50 150.00 1500.00 140 298 0.740 10000.000 0.000 -0.835
51 153.00 1500.00 151 233 0.740 10000.000 0.000 -0.835
52 156.00 1500.00 127 245 0.740 10000.000 0.000 -0.835
53 159.00 1500.00 145 247 0.740 10000.000 0.000 -0.835
54 162.00 1500.00 135 259 0.740 10000.000 0.000 -0.835
55 165.00 1500.00 131 275 0.740 10000.000 0.000 -0.835
56 168.00 1500.00 126 279 0.740 10000.000 0.000 -0.835
57 171.00 1500.00 129 299 0.740 10000.000 0.000 -0.835
58 174.00 1500.00 129 293 0.740 10000.000 0.000 -0.835
59 177.00 1500.00 145 278 0.740 10000.000 0.000 -0.835
60 180.00 1500.00 137 333 0.740 10000.000 0.000 -0.835
61 183.00 1500.00 142 323 0.740 10000.000 0.000 -0.835
62 186.00 1500.00 107 340 0.740 10000.000 0.000 -0.835
63 189.00 1500.00 137 350 0.740 10000.000 0.000 -0.835
64 192.00 1500.00 131 409 0.740 10000.000 0.000 -0.835
65 195.00 1500.00 142 376 0.740 10000.000 0.000 -0.835
66 198.00 1500.00 133 402 0.740 10000.000 0.000 -0.835
67 201.00 1500.00 135 368 0.740 10000.000 0.000 -0.835
68 204.00 1500.00 121 371 0.740 10000.000 0.000 -0.835
69 207.00 1500.00 151 361 0.740 10000.000 0.000 -0.835
70 210.00 1500.00 136 380 0.740 10000.000 0.000 -0.835
71 213.00 1500.00 134 336 0.740 10000.000 0.000 -0.835
72 216.00 1500.00 160 307 0.740 10000.000 0.000 -0.835
73 219.00 1500.00 140 290 0.740 10000.000 0.000 -0.835
74 222.00 1500.00 159 305 0.740 10000.000 0.000 -0.835
75 225.00 1500.00 163 324 0.740 10000.000 0.000 -0.835
76 228.00 1500.00 156 291 0.740 10000.000 0.000 -0.835
77 231.00 1500.00 186 293 0.740 10000.000 0.000 -0.835
78 234.00 1500.00 153 249 0.740 10000.000 0.000 -0.835
79 237.00 1500.00 151 275 0.740 10000.000 0.000 -0.835
80 240.00 1500.00 149 255 0.740 10000.000 0.000 -0.835
81 243.00 1500.00 157 243 0.740 10000.000 0.000 -0.835
82 246.00 1500.00 142 254 0.740 10000.000 0.000 -0.835
83 249.00 1500.00 151 246 0.740 10000.000 0.000 -0.835
84 252.00 1500.00 140 239 0.740 10000.000 0.000 -0.835
85 255.00 1500.00 159 252 0.740 10000.000 0.000 -0.835
86 258.00 1500.00 148 289 0.740 10000.000 0.000 -0.835
87 261.00 1500.00 130 292 0.740 10000.000 0.000 -0.835
88 264.00 1500.00 146 293 0.740 10000.000 0.000 -0.835
89 267.00 1500.00 115 303 0.740 10000.000 0.000 -0.835
90 270.00 1500.00 140 266 0.740 10000.000 0.000 -0.835
91 273.00 1500.00 149 312 0.740 10000.000 0.000 -0.835
92 276.00 1500.00 138 335 0.740 10000.000 0.000 -0.835
93 279.00 1500.00 144 312 0.740 10000.000 0.000 -0.835
94 282.00 1500.00 132 363 0.740 10000.000 0.000 -0.835
95 285.00 1500.00 125 353 0.740 10000.000 0.000 -0.835
96 288.00 1500.00 137 370 0.740 10000.000 0.000 -0.835
97 291.00 1500.00 127 359 0.740 10000.000 0.000 -0.835
98 294.00 1500.00 152 361 0.740 10000.000 0.000 -0.835
99 297.00 1500.00 116 340 0.740 10000.000 0.000 -0.835
100 300.00 1500.00 114 384 0.740 10000.000 0.000 -0.835
101 303.00 1500.00 130 349 0.740 10000.000 0.000 -0.835
102 306.00 1500.00 166 386 0.740 10000.000 0.000 -0.835
103 309.00 1500.00 156 379 0.740 10000.000 0.000 -0.835
104 312.00 1500.00 139 374 0.740 10000.000 0.000 -0.835
105 315.00 1500.00 150 347 0.740 10000.000 0.000 -0.835
106 318.00 1500.00 150 306 0.740 10000.000 0.000 -0.835
107 321.00 1500.00 150 290 0.740 10000.000 0.000 -0.835
108 324.00 1500.00 135 293 0.740 10000.000 0.000 -0.835
109 327.00 1500.00 117 298 0.740 10000.000 0.000 -0.835
110 330.00 1500.00 130 259 0.740 10000.000 0.000 -0.835
111 333.00 1500.00 139 254 0.740 10000.000 0.000 -0.835
112 336.00 1500.00 142 267 0.740 10000.000 0.000 -0.835
113 339.00 1500.00 130 243 0.740 10000.000 0.000 -0.835
114 342.00 1500.00 148 255 0.740 10000.000 0.000 -0.835
115 345.00 1500.00 142 254 0.740 10000.000 0.000 -0.835
116 348.00 1500.00 145 253 0.740 10000.000 0.000 -0.835
117 351.00 1500.00 127 265 0.740 10000.000 0.000 -0.835
118 354.00 1500.00 142 263 0.740 10000.000 0.000 -0.835
119 357.00 1500.00 167 243 0.740 10000.000 0.000 -0.835
120 360.00 1500.00 176 261 0.740 10000.000 0.000 -0.835
121 363.00 1500.00 141 256 0.740 10000.000 0.000 -0.835
122 366.00 1500.00 152 269 0.740 10000.000 0.000 -0.835
123 369.00 1500.00 152 298 0.740 10000.000 0.000 -0.835
124 372.00 1500.00 172 305 0.740 10000.000 0.000 -0.835
125 375.00 1500.00 139 307 0.740 10000.000 0.000 -0.835
126 378.00 1500.00 168 305 0.740 10000.000 0.000 -0.835
127 381.00 1500.00 141 338 0.740 10000.000 0.000 -0.835
128 384.00 1500.00 164 375 0.740 10000.000 0.000 -0.835
129 387.00 1500.00 167 353 0.740 10000.000 0.000 -0.835
130 390.00 1500.00 149 376 0.740 10000.000 0.000 -0.835
131 393.00 1500.00 154 366 0.740 10000.000 0.000 -0.835
132 396.00 1500.00 145 406 0.740 10000.000 0.000 -0.835
133 399.00 1500.00 136 369 0.740 10000.000 0.000 -0.835
134 402.00 1500.00 149 352 0.740 10000.000 0.000 -0.835
135 405.00 1500.00 126 390 0.740 10000.000 0.000 -0.835
136 408.00 1500.00 136 361 0.740 10000.000 0.000 -0.835
137 411.00 1500.00 129 326 0.740 10000.000 0.000 -0.835
138 414.00 1500.00 135 356 0.740 10000.000 0.000 -0.835
139 417.00 1500.00 118 304 0.740 10000.000 0.000 -0.835
140 420.00 1500.00 119 302 0.740 10000.000 0.000 -0.835
141 423.00 1500.00 113 294 0.740 10000.000 0.000 -0.835
142 426.00 1500.00 138 271 0.740 10000.000 0.000 -0.835
143 429.00 1500.00 125 292 0.740 10000.000 0.000 -0.835
144 432.00 1500.00 125 278 0.740 10000.000 0.000 -0.835
