# BinNR microsec tot-time (s)  O-Beam AUX Ampl(V) f(Hz) phase(deg) chi(pos)
0 0.00 1500.00 121 355 0.740 10000.000 0.000 0.505
1 3.00 1500.00 193 659 0.740 10000.000 0.000 0.505
2 6.00 1500.00 228 595 0.740 10000.000 0.000 0.505
3 9.00 1500.00 208 620 0.740 10000.000 0.000 0.505
4 12.00 1500.00 209 665 0.740 10000.000 0.000 0.505
5 15.00 1500.00 237 624 0.740 10000.000 0.000 0.505
6 18.00 1500.00 224 647 0.740 10000.000 0.000 0.505
7 21.00 1500.00 198 633 0.740 10000.000 0.000 0.505
8 24.00 1500.00 205 605 0.740 10000.000 0.000 0.505
9 27.00 1500.00 214 688 0.740 10000.000 0.000 0.505
10 30.00 1500.00 208 666 0.740 10000.000 0.000 0.505
11 33.00 1500.00 215 617 0.740 10000.000 0.000 0.505
12 36.00 1500.00 214 682 0.740 10000.000 0.000 0.505
13 39.00 1500.00 215 643 0.740 10000.000 0.000 0.505
14 42.00 1500.00 208 626 0.740 10000.000 0.000 0.505
15 45.00 1500.00 221 628 0.740 10000.000 0.000 0.505
16 48.00 1500.00 205 640 0.740 10000.000 0.000 0.505
17 51.00 1500.00 247 633 0.740 10000.000 0.000 0.505
18 54.00 1500.00 214 661 0.740 10000.000 0.000 0.505
19 57.00 1500.00 227 619 0.740 10000.000 0.000 0.505
20 60.00 1500.00 217 633 0.740 10000.000 0.000 0.505
21 63.00 1500.00 234 623 0.740 10000.000 0.000 0.505
22 66.00 1500.00 195 619 0.740 10000.000 0.000 0.505
23 69.00 1500.00 199 670 0.740 10000.000 0.000 0.505
24 72.00 1500.00 217 608 0.740 10000.000 0.000 0.505
25 75.00 1500.00 213 609 0.740 10000.000 0.000 0.505
26 78.00 1500.00 230 627 0.740 10000.000 0.000 0.505
27 81.00 1500.00 208 626 0.740 10000.000 0.000 0.505
28 84.00 1500.00 212 650 0.740 10000.000 0.000 0.505
29 87.00 1500.00 220 583 0.740 10000.000 0.000 0.505
30 90.00 1500.00 226 569 0.740 10000.000 0.000 0.505
31 93.00 1500.00 197 589 0.740 10000.000 0.000 0.505
32 96.00 1500.00 206 609 0.740 10000.000 0.000 0.505
33 99.00 1500.00 236 598 0.740 10000.000 0.000 0.505
34 102.00 1500.00 224 635 0.740 10000.000 0.000 0.505
35 105.00 1500.00 254 615 0.740 10000.000 0.000 0.505
36 108.00 1500.00 191 644 0.740 10000.000 0.000 0.505
37 111.00 1500.00 208 632 0.740 10000.000 0.000 0.505
38 114.00 1500.00 201 637 0.740 10000.000 0.000 0.505
39 117.00 1500.00 203 633 0.740 10000.000 0.000 0.505
40 120.00 1500.00 210 616 0.740 10000.000 0.000 0.505
41 123.00 1500.00 224 591 0.740 10000.000 0.000 0.505
42 126.00 1500.00 219 660 0.740 10000.000 0.000 0.505
43 129.00 1500.00 192 611 0.740 10000.000 0.000 0.505
44 132.00 1500.00 243 651 0.740 10000.000 0.000 0.505
45 135.00 1500.00 200 631 0.740 10000.000 0.000 0.505
46 138.00 1500.00 205 674 0.740 10000.000 0.000 0.505
47 141.00 1500.00 205 641 0.740 10000.000 0.000 0.505
48 144.00 1500.00 205 652 0.740 10000.000 0.000 0.505
49 147.00 1500.00 207 604 0.740 10000.000 0.000 0.505
50 150.00 1500.00 235 646 0.740 10000.000 0.000 0.505
51 153.00 1500.00 218 614 0.740 10000.000 0.000 0.505
52 156.00 1500.00 223 620 0.740 10000.000 0.000 0.505
53 159.00 1500.00 203 627 0.740 10000.000 0.000 0.505
54 162.00 1500.00 243 678 0.740 10000.000 0.000 0.505
55 165.00 1500.00 212 601 0.740 10000.000 0.000 0.505
56 168.00 1500.00 237 627 0.740 10000.000 0.000 0.505
57 171.00 1500.00 238 619 0.740 10000.000 0.000 0.505
58 174.00 1500.00 245 638 0.740 10000.000 0.000 0.505
59 177.00 1500.00 202 669 0.740 10000.000 0.000 0.505
60 180.00 1500.00 222 665 0.740 10000.000 0.000 0.505
61 183.00 1500.00 221 618 0.740 10000.000 0.000 0.505
62 186.00 1500.00 233 649 0.740 10000.000 0.000 0.505
63 189.00 1500.00 201 614 0.740 10000.000 0.000 0.505
64 192.00 1500.00 221 613 0.740 10000.000 0.000 0.505
65 195.00 1500.00 196 590 0.740 10000.000 0.000 0.505
66 198.00 1500.00 221 647 0.740 10000.000 0.000 0.505
67 201.00 1500.00 217 597 0.740 10000.000 0.000 0.505
68 204.00 1500.00 219 600 0.740 10000.000 0.000 0.505
69 207.00 1500.00 210 615 0.740 10000.000 0.000 0.505
70 210.00 1500.00 202 649 0.740 10000.000 0.000 0.505
71 213.00 1500.00 208 637 0.740 10000.000 0.000 0.505
72 216.00 1500.00 206 641 0.740 10000.000 0.000 0.505
73 219.00 1500.00 211 613 0.740 10000.000 0.000 0.505
74 222.00 1500.00 214 599 0.740 10000.000 0.000 0.505
75 225.00 1500.00 198 659 0.740 10000.000 0.000 0.505
76 228.00 1500.00 221 648 0.740 10000.000 0.000 0.505
77 231.00 1500.00 201 605 0.740 10000.000 0.000 0.505
78 234.00 1500.00 226 667 0.740 10000.000 0.000 0.505
79 237.00 1500.00 201 648 0.740 10000.000 0.000 0.505
80 240.00 1500.00 208 678 0.740 10000.000 0.000 0.505
81 243.00 1500.00 198 630 0.740 10000.000 0.000 0.505
82 246.00 1500.00 215 628 0.740 10000.000 0.000 0.505
83 249.00 1500.00 203 567 0.740 10000.000 0.000 0.505
84 252.00 1500.00 244 622 0.740 10000.000 0.000 0.505
85 255.00 1500.00 194 603 0.740 10000.000 0.000 0.505
86 258.00 1500.00 209 641 0.740 10000.000 0.000 0.505
87 261.00 1500.00 235 613 0.740 10000.000 0.000 0.505
88 264.00 1500.00 210 605 0.740 10000.000 0.000 0.505
89 267.00 1500.00 199 597 0.740 10000.000 0.000 0.505
90 270.00 1500.00 210 653 0.740 10000.000 0.000 0.505
91 273.00 1500.00 199 629 0.740 10000.000 0.000 0.505
92 276.00 1500.00 214 666 0.740 10000.000 0.000 0.505
93 279.00 1500.00 204 646 0.740 10000.000 0.000 0.505
94 282.00 1500.00 208 665 0.740 10000.000 0.000 0.505
95 285.00 1500.00 236 581 0.740 10000.000 0.000 0.505
96 288.00 1500.00 223 644 0.740 10000.000 0.000 0.505
97 291.00 1500.00 270 632 0.740 10000.000 0.000 0.505
98 294.00 1500.00 219 623 0.740 10000.000 0.000 0.505
99 297.00 1500.00 204 606 0.740 10000.000 0.000 0.505
100 300.00 1500.00 242 646 0.740 10000.000 0.000 0.505
101 303.00 1500.00 210 606 0.740 10000.000 0.000 0.505
102 306.00 1500.00 219 643 0.740 10000.000 0.000 0.505
103 309.00 1500.00 207 578 0.740 10000.000 0.000 0.505
104 312.00 1500.00 225 662 0.740 10000.000 0.000 0.505
105 315.00 1500.00 224 672 0.740 10000.000 0.000 0.505
106 318.00 1500.00 215 631 0.740 10000.000 0.000 0.505
107 321.00 1500.00 235 616 0.740 10000.000 0.000 0.505
108 324.00 1500.00 230 640 0.740 10000.000 0.000 0.505
109 327.00 1500.00 228 649 0.740 10000.000 0.000 0.505
110 330.00 1500.00 231 657 0.740 10000.000 0.000 0.505
111 333.00 1500.00 204 623 0.740 10000.000 0.000 0.505
112 336.00 1500.00 215 638 0.740 10000.000 0.000 0.505
113 339.00 1500.00 224 615 0.740 10000.000 0.000 0.505
114 342.00 1500.00 235 679 0.740 10000.000 0.000 0.505
115 345.00 1500.00 199 633 0.740 10000.000 0.000 0.505
116 348.00 1500.00 226 653 0.740 10000.000 0.000 0.505
117 351.00 1500.00 198 623 0.740 10000.000 0.000 0.505
118 354.00 1500.00 220 661 0.740 10000.000 0.000 0.505
119 357.00 1500.00 197 596 0.740 10000.000 0.000 0.505
120 360.00 1500.00 199 632 0.740 10000.000 0.000 0.505
121 363.00 1500.00 218 611 0.740 10000.000 0.000 0.505
122 366.00 1500.00 215 651 0.740 10000.000 0.000 0.505
123 369.00 1500.00 209 664 0.740 10000.000 0.000 0.505
124 372.00 1500.00 216 652 0.740 10000.000 0.000 0.505
125 375.00 1500.00 207 621 0.740 10000.000 0.000 0.505
126 378.00 1500.00 192 664 0.740 10000.000 0.000 0.505
127 381.00 1500.00 198 624 0.740 10000.000 0.000 0.505
128 384.00 1500.00 253 649 0.740 10000.000 0.000 0.505
129 387.00 1500.00 226 621 0.740 10000.000 0.000 0.505
130 390.00 1500.00 234 622 0.740 10000.000 0.000 0.505
131 393.00 1500.00 185 613 0.740 10000.000 0.000 0.505
132 396.00 1500.00 197 584 0.740 10000.000 0.000 0.505
133 399.00 1500.00 226 588 0.740 10000.000 0.000 0.505
134 402.00 1500.00 234 625 0.740 10000.000 0.000 0.505
135 405.00 1500.00 212 652 0.740 10000.000 0.000 0.505
136 408.00 1500.00 248 610 0.740 10000.000 0.000 0.505
137 411.00 1500.00 216 651 0.740 10000.000 0.000 0.505
138 414.00 1500.00 233 639 0.740 10000.000 0.000 0.505
139 417.00 1500.00 191 609 0.740 10000.000 0.000 0.505
140 420.00 1500.00 244 674 0.740 10000.000 0.000 0.505
141 423.00 1500.00 223 623 0.740 10000.000 0.000 0.505
142 426.00 1500.00 233 652 0.740 10000.000 0.000 0.505
143 429.00 1500.00 227 662 0.740 10000.000 0.000 0.505
144 432.00 1500.00 239 594 0.740 10000.000 0.000 0.505
