# BinNR microsec tot-time (s)  O-Beam AUX Ampl(V) f(Hz) phase(deg) chi(pos)
0 0.00 1500.01 111 301 0.740 10000.000 0.000 0.341
1 3.00 1500.01 205 634 0.740 10000.000 0.000 0.341
2 6.00 1500.01 192 667 0.740 10000.000 0.000 0.341
3 9.00 1500.01 198 593 0.740 10000.000 0.000 0.341
4 12.00 1500.01 202 588 0.740 10000.000 0.000 0.341
5 15.00 1500.01 189 642 0.740 10000.000 0.000 0.341
6 18.00 1500.01 204 668 0.740 10000.000 0.000 0.341
7 21.00 1500.01 211 605 0.740 10000.000 0.000 0.341
8 24.00 1500.01 205 608 0.740 10000.000 0.000 0.341
9 27.00 1500.01 177 644 0.740 10000.000 0.000 0.341
10 30.00 1500.01 204 659 0.740 10000.000 0.000 0.341
11 33.00 1500.01 193 620 0.740 10000.000 0.000 0.341
12 36.00 1500.01 184 595 0.740 10000.000 0.000 0.341
13 39.00 1500.01 189 586 0.740 10000.000 0.000 0.341
14 42.00 1500.01 207 589 0.740 10000.000 0.000 0.341
15 45.00 1500.01 201 571 0.740 10000.000 0.000 0.341
16 48.00 1500.01 209 598 0.740 10000.000 0.000 0.341
17 51.00 1500.01 211 631 0.740 10000.000 0.000 0.341
18 54.00 1500.01 216 584 0.740 10000.000 0.000 0.341
19 57.00 1500.01 193 612 0.740 10000.000 0.000 0.341
20 60.00 1500.01 210 665 0.740 10000.000 0.000 0.341
21 63.00 1500.01 209 586 0.740 10000.000 0.000 0.341
22 66.00 1500.01 221 588 0.740 10000.000 0.000 0.341
23 69.00 1500.01 201 642 0.740 10000.000 0.000 0.341
24 72.00 1500.01 211 599 0.740 10000.000 0.000 0.341
25 75.00 1500.01 179 571 0.740 10000.000 0.000 0.341
26 78.00 1500.01 221 566 0.740 10000.000 0.000 0.341
27 81.00 1500.01 206 531 0.740 10000.000 0.000 0.341
28 84.00 1500.01 196 605 0.740 10000.000 0.000 0.341
29 87.00 1500.01 231 613 0.740 10000.000 0.000 0.341
30 90.00 1500.01 221 591 0.740 10000.000 0.000 0.341
31 93.00 1500.01 203 551 0.740 10000.000 0.000 0.341
32 96.00 1500.01 214 514 0.740 10000.000 0.000 0.341
33 99.00 1500.01 214 544 0.740 10000.000 0.000 0.341
34 102.00 1500.01 197 583 0.740 10000.000 0.000 0.341
35 105.00 1500.01 222 595 0.740 10000.000 0.000 0.341
36 108.00 1500.01 203 527 0.740 10000.000 0.000 0.341
37 111.00 1500.01 201 545 0.740 10000.000 0.000 0.341
38 114.00 1500.01 202 572 0.740 10000.000 0.000 0.341
39 117.00 1500.01 206 556 0.740 10000.000 0.000 0.341
40 120.00 1500.01 181 598 0.740 10000.000 0.000 0.341
41 123.00 1500.01 172 587 0.740 10000.000 0.000 0.341
42 126.00 1500.01 158 629 0.740 10000.000 0.000 0.341
43 129.00 1500.01 199 587 0.740 10000.000 0.000 0.341
44 132.00 1500.01 199 597 0.740 10000.000 0.000 0.341
45 135.00 1500.01 194 597 0.740 10000.000 0.000 0.341
46 138.00 1500.01 176 619 0.740 10000.000 0.000 0.341
47 141.00 1500.01 187 633 0.740 10000.000 0.000 0.341
48 144.00 1500.01 180 622 0.740 10000.000 0.000 0.341
49 147.00 1500.01 204 632 0.740 10000.000 0.000 0.341
50 150.00 1500.01 197 637 0.740 10000.000 0.000 0.341
51 153.00 1500.01 212 600 0.740 10000.000 0.000 0.341
52 156.00 1500.01 233 603 0.740 10000.000 0.000 0.341
53 159.00 1500.01 171 605 0.740 10000.000 0.000 0.341
54 162.00 1500.01 202 624 0.740 10000.000 0.000 0.341
55 165.00 1500.01 185 617 0.740 10000.000 0.000 0.341
56 168.00 1500.01 218 575 0.740 10000.000 0.000 0.341
57 171.00 1500.01 220 587 0.740 10000.000 0.000 0.341
58 174.00 1500.01 192 635 0.740 10000.000 0.000 0.341
59 177.00 1500.01 208 613 0.740 10000.000 0.000 0.341
60 180.00 1500.01 230 601 0.740 10000.000 0.000 0.341
61 183.00 1500.01 222 563 0.740 10000.000 0.000 0.341
62 186.00 1500.01 205 569 0.740 10000.000 0.000 0.341
63 189.00 1500.01 222 530 0.740 10000.000 0.000 0.341
64 192.00 1500.01 231 582 0.740 10000.000 0.000 0.341
65 195.00 1500.01 202 542 0.740 10000.000 0.000 0.341
66 198.00 1500.01 207 533 0.740 10000.000 0.000 0.341
67 201.00 1500.01 212 532 0.740 10000.000 0.000 0.341
68 204.00 1500.01 217 534 0.740 10000.000 0.000 0.341
69 207.00 1500.01 221 532 0.740 10000.000 0.000 0.341
70 210.00 1500.01 212 569 0.740 10000.000 0.000 0.341
71 213.00 1500.01 212 617 0.740 10000.000 0.000 0.341
72 216.00 1500.01 197 593 0.740 10000.000 0.000 0.341
73 219.00 1500.01 186 553 0.740 10000.000 0.000 0.341
74 222.00 1500.01 201 648 0.740 10000.000 0.000 0.341
75 225.00 1500.01 187 608 0.740 10000.000 0.000 0.341
76 228.00 1500.01 169 637 0.740 10000.000 0.000 0.341
77 231.00 1500.01 186 596 0.740 10000.000 0.000 0.341
78 234.00 1500.01 192 620 0.740 10000.000 0.000 0.341
79 237.00 1500.01 176 618 0.740 10000.000 0.000 0.341
80 240.00 1500.01 212 645 0.740 10000.000 0.000 0.341
81 243.00 1500.01 176 601 0.740 10000.000 0.000 0.341
82 246.00 1500.01 197 632 0.740 10000.000 0.000 0.341
83 249.00 1500.01 225 597 0.740 10000.000 0.000 0.341
84 252.00 1500.01 204 667 0.740 10000.000 0.000 0.341
85 255.00 1500.01 204 598 0.740 10000.000 0.000 0.341
86 258.00 1500.01 193 663 0.740 10000.000 0.000 0.341
87 261.00 1500.01 209 646 0.740 10000.000 0.000 0.341
88 264.00 1500.01 207 629 0.740 10000.000 0.000 0.341
89 267.00 1500.01 206 550 0.740 10000.000 0.000 0.341
90 270.00 1500.01 204 596 0.740 10000.000 0.000 0.341
91 273.00 1500.01 227 615 0.740 10000.000 0.000 0.341
92 276.00 1500.01 215 614 0.740 10000.000 0.000 0.341
93 279.00 1500.01 215 554 0.740 10000.000 0.000 0.341
94 282.00 1500.01 220 608 0.740 10000.000 0.000 0.341
95 285.00 1500.01 185 603 0.740 10000.000 0.000 0.341
96 288.00 1500.01 219 551 0.740 10000.000 0.000 0.341
97 291.00 1500.01 211 540 0.740 10000.000 0.000 0.341
98 294.00 1500.01 216 563 0.740 10000.000 0.000 0.341
99 297.00 1500.01 178 585 0.740 10000.000 0.000 0.341
100 300.00 1500.01 175 551 0.740 10000.000 0.000 0.341
101 303.00 1500.01 197 556 0.740 10000.000 0.000 0.341
102 306.00 1500.01 196 554 0.740 10000.000 0.000 0.341
103 309.00 1500.01 187 563 0.740 10000.000 0.000 0.341
104 312.00 1500.01 189 566 0.740 10000.000 0.000 0.341
105 315.00 1500.01 198 593 0.740 10000.000 0.000 0.341
106 318.00 1500.01 224 624 0.740 10000.000 0.000 0.341
107 321.00 1500.01 196 639 0.740 10000.000 0.000 0.341
108 324.00 1500.01 204 606 0.740 10000.000 0.000 0.341
109 327.00 1500.01 219 609 0.740 10000.000 0.000 0.341
110 330.00 1500.01 219 643 0.740 10000.000 0.000 0.341
111 333.00 1500.01 193 622 0.740 10000.000 0.000 0.341
112 336.00 1500.01 233 571 0.740 10000.000 0.000 0.341
113 339.00 1500.01 204 629 0.740 10000.000 0.000 0.341
114 342.00 1500.01 196 639 0.740 10000.000 0.000 0.341
115 345.00 1500.01 202 629 0.740 10000.000 0.000 0.341
116 348.00 1500.01 201 640 0.740 10000.000 0.000 0.341
117 351.00 1500.01 192 650 0.740 10000.000 0.000 0.341
118 354.00 1500.01 191 599 0.740 10000.000 0.000 0.341
119 357.00 1500.01 176 663 0.740 10000.000 0.000 0.341
120 360.00 1500.01 202 617 0.740 10000.000 0.000 0.341
121 363.00 1500.01 192 588 0.740 10000.000 0.000 0.341
122 366.00 1500.01 197 598 0.740 10000.000 0.000 0.341
123 369.00 1500.01 207 645 0.740 10000.000 0.000 0.341
124 372.00 1500.01 210 623 0.740 10000.000 0.000 0.341
125 375.00 1500.01 218 596 0.740 10000.000 0.000 0.341
126 378.00 1500.01 202 626 0.740 10000.000 0.000 0.341
127 381.00 1500.01 188 581 0.740 10000.000 0.000 0.341
128 384.00 1500.01 213 617 0.740 10000.000 0.000 0.341
129 387.00 1500.01 181 510 0.740 10000.000 0.000 0.341
130 390.00 1500.01 194 581 0.740 10000.000 0.000 0.341
131 393.00 1500.01 200 553 0.740 10000.000 0.000 0.341
132 396.00 1500.01 223 539 0.740 10000.000 0.000 0.341
133 399.00 1500.01 195 536 0.740 10000.000 0.000 0.341
134 402.00 1500.01 225 549 0.740 10000.000 0.000 0.341
135 405.00 1500.01 197 556 0.740 10000.000 0.000 0.341
136 408.00 1500.01 197 546 0.740 10000.000 0.000 0.341
137 411.00 1500.01 219 562 0.740 10000.000 0.000 0.341
138 414.00 1500.01 205 642 0.740 10000.000 0.000 0.341
139 417.00 1500.01 201 593 0.740 10000.000 0.000 0.341
140 420.00 1500.01 208 591 0.740 10000.000 0.000 0.341
141 423.00 1500.01 220 588 0.740 10000.000 0.000 0.341
142 426.00 1500.01 212 639 0.740 10000.000 0.000 0.341
143 429.00 1500.01 218 613 0.740 10000.000 0.000 0.341
144 432.00 1500.01 215 629 0.740 10000.000 0.000 0.341
