# BinNR microsec tot-time (s)  O-Beam AUX Ampl(V) f(Hz) phase(deg) chi(pos)
0 0.00 1500.01 81 180 0.740 10000.000 0.000 0.989
1 3.00 1500.01 193 382 0.740 10000.000 0.000 0.989
2 6.00 1500.01 154 383 0.740 10000.000 0.000 0.989
3 9.00 1500.01 185 377 0.740 10000.000 0.000 0.989
4 12.00 1500.01 173 366 0.740 10000.000 0.000 0.989
5 15.00 1500.01 175 391 0.740 10000.000 0.000 0.989
6 18.00 1500.01 173 409 0.740 10000.000 0.000 0.989
7 21.00 1500.01 198 377 0.740 10000.000 0.000 0.989
8 24.00 1500.01 187 431 0.740 10000.000 0.000 0.989
9 27.00 1500.01 165 394 0.740 10000.000 0.000 0.989
10 30.00 1500.01 198 429 0.740 10000.000 0.000 0.989
11 33.00 1500.01 195 386 0.740 10000.000 0.000 0.989
12 36.00 1500.01 202 424 0.740 10000.000 0.000 0.989
13 39.00 1500.01 165 420 0.740 10000.000 0.000 0.989
14 42.00 1500.01 180 415 0.740 10000.000 0.000 0.989
15 45.00 1500.01 165 414 0.740 10000.000 0.000 0.989
16 48.00 1500.01 170 382 0.740 10000.000 0.000 0.989
17 51.00 1500.01 189 368 0.740 10000.000 0.000 0.989
18 54.00 1500.01 194 355 0.740 10000.000 0.000 0.989
19 57.00 1500.01 205 372 0.740 10000.000 0.000 0.989
20 60.00 1500.01 181 357 0.740 10000.000 0.000 0.989
21 63.00 1500.01 173 380 0.740 10000.000 0.000 0.989
22 66.00 1500.01 140 397 0.740 10000.000 0.000 0.989
23 69.00 1500.01 160 419 0.740 10000.000 0.000 0.989
24 72.00 1500.01 162 397 0.740 10000.000 0.000 0.989
25 75.00 1500.01 150 404 0.740 10000.000 0.000 0.989
26 78.00 1500.01 171 440 0.740 10000.000 0.000 0.989
27 81.00 1500.01 168 395 0.740 10000.000 0.000 0.989
28 84.00 1500.01 170 488 0.740 10000.000 0.000 0.989
29 87.00 1500.01 155 437 0.740 10000.000 0.000 0.989
30 90.00 1500.01 158 513 0.740 10000.000 0.000 0.989
31 93.00 1500.01 156 446 0.740 10000.000 0.000 0.989
32 96.00 1500.01 156 494 0.740 10000.000 0.000 0.989
33 99.00 1500.01 146 499 0.740 10000.000 0.000 0.989
34 102.00 1500.01 170 480 0.740 10000.000 0.000 0.989
35 105.00 1500.01 162 481 0.740 10000.000 0.000 0.989
36 108.00 1500.01 178 475 0.740 10000.000 0.000 0.989
37 111.00 1500.01 160 429 0.740 10000.000 0.000 0.989
38 114.00 1500.01 179 435 0.740 10000.000 0.000 0.989
39 117.00 1500.01 191 435 0.740 10000.000 0.000 0.989
40 120.00 1500.01 165 415 0.740 10000.000 0.000 0.989
41 123.00 1500.01 172 388 0.740 10000.000 0.000 0.989
42 126.00 1500.01 204 413 0.740 10000.000 0.000 0.989
43 129.00 1500.01 190 402 0.740 10000.000 0.000 0.989
44 132.00 1500.01 210 396 0.740 10000.000 0.000 0.989
45 135.00 1500.01 192 345 0.740 10000.000 0.000 0.989
46 138.00 1500.01 195 373 0.740 10000.000 0.000 0.989
47 141.00 1500.01 202 361 0.740 10000.000 0.000 0.989
48 144.00 1500.01 181 335 0.740 10000.000 0.000 0.989
49 147.00 1500.01 195 367 0.740 10000.000 0.000 0.989
50 150.00 1500.01 189 366 0.740 10000.000 0.000 0.989
51 153.00 1500.01 178 338 0.740 10000.000 0.000 0.989
52 156.00 1500.01 169 360 0.740 10000.000 0.000 0.989
53 159.00 1500.01 178 377 0.740 10000.000 0.000 0.989
54 162.00 1500.01 170 358 0.740 10000.000 0.000 0.989
55 165.00 1500.01 147 371 0.740 10000.000 0.000 0.989
56 168.00 1500.01 183 387 0.740 10000.000 0.000 0.989
57 171.00 1500.01 164 399 0.740 10000.000 0.000 0.989
58 174.00 1500.01 179 429 0.740 10000.000 0.000 0.989
59 177.00 1500.01 159 428 0.740 10000.000 0.000 0.989
60 180.00 1500.01 141 465 0.740 10000.000 0.000 0.989
61 183.00 1500.01 140 480 0.740 10000.000 0.000 0.989
62 186.00 1500.01 176 473 0.740 10000.000 0.000 0.989
63 189.00 1500.01 136 472 0.740 10000.000 0.000 0.989
64 192.00 1500.01 147 504 0.740 10000.000 0.000 0.989
65 195.00 1500.01 174 462 0.740 10000.000 0.000 0.989
66 198.00 1500.01 171 497 0.740 10000.000 0.000 0.989
67 201.00 1500.01 176 459 0.740 10000.000 0.000 0.989
68 204.00 1500.01 174 505 0.740 10000.000 0.000 0.989
69 207.00 1500.01 182 455 0.740 10000.000 0.000 0.989
70 210.00 1500.01 167 475 0.740 10000.000 0.000 0.989
71 213.00 1500.01 165 486 0.740 10000.000 0.000 0.989
72 216.00 1500.01 192 471 0.740 10000.000 0.000 0.989
73 219.00 1500.01 167 458 0.740 10000.000 0.000 0.989
74 222.00 1500.01 194 415 0.740 10000.000 0.000 0.989
75 225.00 1500.01 177 413 0.740 10000.000 0.000 0.989
76 228.00 1500.01 196 407 0.740 10000.000 0.000 0.989
77 231.00 1500.01 202 395 0.740 10000.000 0.000 0.989
78 234.00 1500.01 200 374 0.740 10000.000 0.000 0.989
79 237.00 1500.01 190 338 0.740 10000.000 0.000 0.989
80 240.00 1500.01 180 357 0.740 10000.000 0.000 0.989
81 243.00 1500.01 197 342 0.740 10000.000 0.000 0.989
82 246.00 1500.01 186 350 0.740 10000.000 0.000 0.989
83 249.00 1500.01 185 337 0.740 10000.000 0.000 0.989
84 252.00 1500.01 164 352 0.740 10000.000 0.000 0.989
85 255.00 1500.01 175 375 0.740 10000.000 0.000 0.989
86 258.00 1500.01 177 355 0.740 10000.000 0.000 0.989
87 261.00 1500.01 194 364 0.740 10000.000 0.000 0.989
88 264.00 1500.01 173 409 0.740 10000.000 0.000 0.989
89 267.00 1500.01 169 396 0.740 10000.000 0.000 0.989
90 270.00 1500.01 166 409 0.740 10000.000 0.000 0.989
91 273.00 1500.01 165 408 0.740 10000.000 0.000 0.989
92 276.00 1500.01 173 466 0.740 10000.000 0.000 0.989
93 279.00 1500.01 141 434 0.740 10000.000 0.000 0.989
94 282.00 1500.01 168 508 0.740 10000.000 0.000 0.989
95 285.00 1500.01 174 448 0.740 10000.000 0.000 0.989
96 288.00 1500.01 175 501 0.740 10000.000 0.000 0.989
97 291.00 1500.01 155 437 0.740 10000.000 0.000 0.989
98 294.00 1500.01 143 461 0.740 10000.000 0.000 0.989
99 297.00 1500.01 166 502 0.740 10000.000 0.000 0.989
100 300.00 1500.01 200 516 0.740 10000.000 0.000 0.989
101 303.00 1500.01 170 487 0.740 10000.000 0.000 0.989
102 306.00 1500.01 184 461 0.740 10000.000 0.000 0.989
103 309.00 1500.01 160 446 0.740 10000.000 0.000 0.989
104 312.00 1500.01 181 474 0.740 10000.000 0.000 0.989
105 315.00 1500.01 170 435 0.740 10000.000 0.000 0.989
106 318.00 1500.01 141 429 0.740 10000.000 0.000 0.989
107 321.00 1500.01 155 469 0.740 10000.000 0.000 0.989
108 324.00 1500.01 169 433 0.740 10000.000 0.000 0.989
109 327.00 1500.01 167 364 0.740 10000.000 0.000 0.989
110 330.00 1500.01 173 415 0.740 10000.000 0.000 0.989
111 333.00 1500.01 168 385 0.740 10000.000 0.000 0.989
112 336.00 1500.01 175 336 0.740 10000.000 0.000 0.989
113 339.00 1500.01 146 358 0.740 10000.000 0.000 0.989
114 342.00 1500.01 176 344 0.740 10000.000 0.000 0.989
115 345.00 1500.01 176 367 0.740 10000.000 0.000 0.989
116 348.00 1500.01 155 340 0.740 10000.000 0.000 0.989
117 351.00 1500.01 151 313 0.740 10000.000 0.000 0.989
118 354.00 1500.01 147 350 0.740 10000.000 0.000 0.989
119 357.00 1500.01 176 330 0.740 10000.000 0.000 0.989
120 360.00 1500.01 203 369 0.740 10000.000 0.000 0.989
121 363.00 1500.01 183 420 0.740 10000.000 0.000 0.989
122 366.00 1500.01 175 366 0.740 10000.000 0.000 0.989
123 369.00 1500.01 174 406 0.740 10000.000 0.000 0.989
124 372.00 1500.01 171 433 0.740 10000.000 0.000 0.989
125 375.00 1500.01 177 441 0.740 10000.000 0.000 0.989
126 378.00 1500.01 183 466 0.740 10000.000 0.000 0.989
127 381.00 1500.01 205 478 0.740 10000.000 0.000 0.989
128 384.00 1500.01 193 483 0.740 10000.000 0.000 0.989
129 387.00 1500.01 172 461 0.740 10000.000 0.000 0.989
130 390.00 1500.01 180 516 0.740 10000.000 0.000 0.989
131 393.00 1500.01 170 528 0.740 10000.000 0.000 0.989
132 396.00 1500.01 167 453 0.740 10000.000 0.000 0.989
133 399.00 1500.01 162 488 0.740 10000.000 0.000 0.989
134 402.00 1500.01 131 515 0.740 10000.000 0.000 0.989
135 405.00 1500.01 161 511 0.740 10000.000 0.000 0.989
136 408.00 1500.01 171 468 0.740 10000.000 0.000 0.989
137 411.00 1500.01 160 414 0.740 10000.000 0.000 0.989
138 414.00 1500.01 156 459 0.740 10000.000 0.000 0.989
139 417.00 1500.01 155 465 0.740 10000.000 0.000 0.989
140 420.00 1500.01 143 445 0.740 10000.000 0.000 0.989
141 423.00 1500.01 143 426 0.740 10000.000 0.000 0.989
142 426.00 1500.01 169 367 0.740 10000.000 0.000 0.989
143 429.00 1500.01 157 349 0.740 10000.000 0.000 0.989
144 432.00 1500.01 162 408 0.740 10000.000 0.000 0.989
