# BinNR microsec tot-time (s)  O-Beam AUX Ampl(V) f(Hz) phase(deg) chi(pos)
0 0.00 1200.00 166 451 0.600 10000.000 0.000 -0.428
1 3.00 1200.00 370 874 0.600 10000.000 0.000 -0.428
2 6.00 1200.00 321 884 0.600 10000.000 0.000 -0.428
3 9.00 1200.00 351 878 0.600 10000.000 0.000 -0.428
4 12.00 1200.00 321 899 0.600 10000.000 0.000 -0.428
5 15.00 1200.00 343 928 0.600 10000.000 0.000 -0.428
6 18.00 1200.00 331 976 0.600 10000.000 0.000 -0.428
7 21.00 1200.00 317 868 0.600 10000.000 0.000 -0.428
8 24.00 1200.00 354 837 0.600 10000.000 0.000 -0.428
9 27.00 1200.00 335 833 0.600 10000.000 0.000 -0.428
10 30.00 1200.00 306 872 0.600 10000.000 0.000 -0.428
11 33.00 1200.00 328 839 0.600 10000.000 0.000 -0.428
12 36.00 1200.00 344 822 0.600 10000.000 0.000 -0.428
13 39.00 1200.00 304 830 0.600 10000.000 0.000 -0.428
14 42.00 1200.00 362 907 0.600 10000.000 0.000 -0.428
15 45.00 1200.00 310 882 0.600 10000.000 0.000 -0.428
16 48.00 1200.00 343 898 0.600 10000.000 0.000 -0.428
17 51.00 1200.00 313 899 0.600 10000.000 0.000 -0.428
18 54.00 1200.00 344 1008 0.600 10000.000 0.000 -0.428
19 57.00 1200.00 318 916 0.600 10000.000 0.000 -0.428
20 60.00 1200.00 327 1012 0.600 10000.000 0.000 -0.428
21 63.00 1200.00 307 901 0.600 10000.000 0.000 -0.428
22 66.00 1200.00 360 1007 0.600 10000.000 0.000 -0.428
23 69.00 1200.00 333 956 0.600 10000.000 0.000 -0.428
24 72.00 1200.00 304 960 0.600 10000.000 0.000 -0.428
25 75.00 1200.00 344 964 0.600 10000.000 0.000 -0.428
26 78.00 1200.00 351 944 0.600 10000.000 0.000 -0.428
27 81.00 1200.00 338 943 0.600 10000.000 0.000 -0.428
28 84.00 1200.00 365 911 0.600 10000.000 0.000 -0.428
29 87.00 1200.00 338 943 0.600 10000.000 0.000 -0.428
30 90.00 1200.00 345 868 0.600 10000.000 0.000 -0.428
31 93.00 1200.00 339 886 0.600 10000.000 0.000 -0.428
32 96.00 1200.00 351 837 0.600 10000.000 0.000 -0.428
33 99.00 1200.00 354 800 0.600 10000.000 0.000 -0.428
34 102.00 1200.00 343 883 0.600 10000.000 0.000 -0.428
35 105.00 1200.00 349 837 0.600 10000.000 0.000 -0.428
36 108.00 1200.00 369 853 0.600 10000.000 0.000 -0.428
37 111.00 1200.00 359 792 0.600 10000.000 0.000 -0.428
38 114.00 1200.00 372 904 0.600 10000.000 0.000 -0.428
39 117.00 1200.00 355 743 0.600 10000.000 0.000 -0.428
40 120.00 1200.00 326 831 0.600 10000.000 0.000 -0.428
41 123.00 1200.00 332 837 0.600 10000.000 0.000 -0.428
42 126.00 1200.00 349 813 0.600 10000.000 0.000 -0.428
43 129.00 1200.00 347 818 0.600 10000.000 0.000 -0.428
44 132.00 1200.00 321 868 0.600 10000.000 0.000 -0.428
45 135.00 1200.00 327 868 0.600 10000.000 0.000 -0.428
46 138.00 1200.00 360 921 0.600 10000.000 0.000 -0.428
47 141.00 1200.00 303 877 0.600 10000.000 0.000 -0.428
48 144.00 1200.00 332 965 0.600 10000.000 0.000 -0.428
49 147.00 1200.00 346 907 0.600 10000.000 0.000 -0.428
50 150.00 1200.00 337 980 0.600 10000.000 0.000 -0.428
51 153.00 1200.00 325 905 0.600 10000.000 0.000 -0.428
52 156.00 1200.00 319 960 0.600 10000.000 0.000 -0.428
53 159.00 1200.00 336 878 0.600 10000.000 0.000 -0.428
54 162.00 1200.00 340 927 0.600 10000.000 0.000 -0.428
55 165.00 1200.00 317 938 0.600 10000.000 0.000 -0.428
56 168.00 1200.00 339 926 0.600 10000.000 0.000 -0.428
57 171.00 1200.00 370 896 0.600 10000.000 0.000 -0.428
58 174.00 1200.00 330 912 0.600 10000.000 0.000 -0.428
59 177.00 1200.00 331 878 0.600 10000.000 0.000 -0.428
60 180.00 1200.00 330 970 0.600 10000.000 0.000 -0.428
61 183.00 1200.00 324 927 0.600 10000.000 0.000 -0.428
62 186.00 1200.00 363 913 0.600 10000.000 0.000 -0.428
63 189.00 1200.00 390 816 0.600 10000.000 0.000 -0.428
64 192.00 1200.00 341 863 0.600 10000.000 0.000 -0.428
65 195.00 1200.00 372 864 0.600 10000.000 0.000 -0.428
66 198.00 1200.00 390 900 0.600 10000.000 0.000 -0.428
67 201.00 1200.00 325 891 0.600 10000.000 0.000 -0.428
68 204.00 1200.00 343 809 0.600 10000.000 0.000 -0.428
69 207.00 1200.00 352 872 0.600 10000.000 0.000 -0.428
70 210.00 1200.00 337 872 0.600 10000.000 0.000 -0.428
71 213.00 1200.00 356 799 0.600 10000.000 0.000 -0.428
72 216.00 1200.00 345 770 0.600 10000.000 0.000 -0.428
73 219.00 1200.00 334 841 0.600 10000.000 0.000 -0.428
74 222.00 1200.00 327 833 0.600 10000.000 0.000 -0.428
75 225.00 1200.00 313 802 0.600 10000.000 0.000 -0.428
76 228.00 1200.00 348 837 0.600 10000.000 0.000 -0.428
77 231.00 1200.00 346 781 0.600 10000.000 0.000 -0.428
78 234.00 1200.00 323 847 0.600 10000.000 0.000 -0.428
79 237.00 1200.00 304 897 0.600 10000.000 0.000 -0.428
80 240.00 1200.00 347 927 0.600 10000.000 0.000 -0.428
81 243.00 1200.00 298 818 0.600 10000.000 0.000 -0.428
82 246.00 1200.00 364 899 0.600 10000.000 0.000 -0.428
83 249.00 1200.00 357 924 0.600 10000.000 0.000 -0.428
84 252.00 1200.00 343 997 0.600 10000.000 0.000 -0.428
85 255.00 1200.00 347 933 0.600 10000.000 0.000 -0.428
86 258.00 1200.00 335 896 0.600 10000.000 0.000 -0.428
87 261.00 1200.00 340 912 0.600 10000.000 0.000 -0.428
88 264.00 1200.00 368 972 0.600 10000.000 0.000 -0.428
89 267.00 1200.00 344 896 0.600 10000.000 0.000 -0.428
90 270.00 1200.00 363 943 0.600 10000.000 0.000 -0.428
91 273.00 1200.00 347 957 0.600 10000.000 0.000 -0.428
92 276.00 1200.00 327 965 0.600 10000.000 0.000 -0.428
93 279.00 1200.00 329 973 0.600 10000.000 0.000 -0.428
94 282.00 1200.00 310 926 0.600 10000.000 0.000 -0.428
95 285.00 1200.00 325 888 0.600 10000.000 0.000 -0.428
96 288.00 1200.00 321 860 0.600 10000.000 0.000 -0.428
97 291.00 1200.00 360 919 0.600 10000.000 0.000 -0.428
98 294.00 1200.00 355 887 0.600 10000.000 0.000 -0.428
99 297.00 1200.00 333 806 0.600 10000.000 0.000 -0.428
100 300.00 1200.00 364 875 0.600 10000.000 0.000 -0.428
101 303.00 1200.00 320 804 0.600 10000.000 0.000 -0.428
102 306.00 1200.00 314 839 0.600 10000.000 0.000 -0.428
103 309.00 1200.00 332 859 0.600 10000.000 0.000 -0.428
104 312.00 1200.00 333 822 0.600 10000.000 0.000 -0.428
105 315.00 1200.00 358 814 0.600 10000.000 0.000 -0.428
106 318.00 1200.00 306 850 0.600 10000.000 0.000 -0.428
107 321.00 1200.00 342 828 0.600 10000.000 0.000 -0.428
108 324.00 1200.00 346 780 0.600 10000.000 0.000 -0.428
109 327.00 1200.00 341 855 0.600 10000.000 0.000 -0.428
110 330.00 1200.00 324 869 0.600 10000.000 0.000 -0.428
111 333.00 1200.00 363 878 0.600 10000.000 0.000 -0.428
112 336.00 1200.00 352 870 0.600 10000.000 0.000 -0.428
113 339.00 1200.00 322 860 0.600 10000.000 0.000 -0.428
114 342.00 1200.00 371 941 0.600 10000.000 0.000 -0.428
115 345.00 1200.00 360 948 0.600 10000.000 0.000 -0.428
116 348.00 1200.00 378 903 0.600 10000.000 0.000 -0.428
117 351.00 1200.00 317 907 0.600 10000.000 0.000 -0.428
118 354.00 1200.00 328 920 0.600 10000.000 0.000 -0.428
119 357.00 1200.00 337 985 0.600 10000.000 0.000 -0.428
120 360.00 1200.00 349 926 0.600 10000.000 0.000 -0.428
121 363.00 1200.00 296 939 0.600 10000.000 0.000 -0.428
122 366.00 1200.00 341 955 0.600 10000.000 0.000 -0.428
123 369.00 1200.00 341 927 0.600 10000.000 0.000 -0.428
124 372.00 1200.00 319 962 0.600 10000.000 0.000 -0.428
125 375.00 1200.00 313 888 0.600 10000.000 0.000 -0.428
126 378.00 1200.00 326 964 0.600 10000.000 0.000 -0.428
127 381.00 1200.00 319 909 0.600 10000.000 0.000 -0.428
128 384.00 1200.00 366 944 0.600 10000.000 0.000 -0.428
129 387.00 1200.00 276 826 0.600 10000.000 0.000 -0.428
130 390.00 1200.00 325 908 0.600 10000.000 0.000 -0.428
131 393.00 1200.00 330 887 0.600 10000.000 0.000 -0.428
132 396.00 1200.00 328 880 0.600 10000.000 0.000 -0.428
133 399.00 1200.00 335 829 0.600 10000.000 0.000 -0.428
134 402.00 1200.00 361 831 0.600 10000.000 0.000 -0.428
135 405.00 1200.00 315 836 0.600 10000.000 0.000 -0.428
136 408.00 1200.00 333 859 0.600 10000.000 0.000 -0.428
137 411.00 1200.00 344 833 0.600 10000.000 0.000 -0.428
138 414.00 1200.00 323 855 0.600 10000.000 0.000 -0.428
139 417.00 1200.00 343 780 0.600 10000.000 0.000 -0.428
140 420.00 1200.00 347 859 0.600 10000.000 0.000 -0.428
141 423.00 1200.00 338 834 0.600 10000.000 0.000 -0.428
