# BinNR microsec tot-time (s)  O-Beam AUX Ampl(V) f(Hz) phase(deg) chi(pos)
0 0.00 1500.00 123 222 2.050 10000.000 0.000 -1.329
1 3.00 1500.00 215 495 2.050 10000.000 0.000 -1.329
2 6.00 1500.00 240 494 2.050 10000.000 0.000 -1.329
3 9.00 1500.00 243 470 2.050 10000.000 0.000 -1.329
4 12.00 1500.00 271 489 2.050 10000.000 0.000 -1.329
5 15.00 1500.00 248 462 2.050 10000.000 0.000 -1.329
6 18.00 1500.00 245 452 2.050 10000.000 0.000 -1.329
7 21.00 1500.00 269 443 2.050 10000.000 0.000 -1.329
8 24.00 1500.00 209 459 2.050 10000.000 0.000 -1.329
9 27.00 1500.00 263 460 2.050 10000.000 0.000 -1.329
10 30.00 1500.00 252 485 2.050 10000.000 0.000 -1.329
11 33.00 1500.00 242 448 2.050 10000.000 0.000 -1.329
12 36.00 1500.00 220 460 2.050 10000.000 0.000 -1.329
13 39.00 1500.00 255 460 2.050 10000.000 0.000 -1.329
14 42.00 1500.00 257 459 2.050 10000.000 0.000 -1.329
15 45.00 1500.00 255 467 2.050 10000.000 0.000 -1.329
16 48.00 1500.00 265 458 2.050 10000.000 0.000 -1.329
17 51.00 1500.00 210 482 2.050 10000.000 0.000 -1.329
18 54.00 1500.00 248 525 2.050 10000.000 0.000 -1.329
19 57.00 1500.00 237 431 2.050 10000.000 0.000 -1.329
20 60.00 1500.00 248 501 2.050 10000.000 0.000 -1.329
21 63.00 1500.00 252 451 2.050 10000.000 0.000 -1.329
22 66.00 1500.00 226 462 2.050 10000.000 0.000 -1.329
23 69.00 1500.00 233 481 2.050 10000.000 0.000 -1.329
24 72.00 1500.00 221 460 2.050 10000.000 0.000 -1.329
25 75.00 1500.00 242 462 2.050 10000.000 0.000 -1.329
26 78.00 1500.00 276 491 2.050 10000.000 0.000 -1.329
27 81.00 1500.00 249 494 2.050 10000.000 0.000 -1.329
28 84.00 1500.00 229 500 2.050 10000.000 0.000 -1.329
29 87.00 1500.00 247 443 2.050 10000.000 0.000 -1.329
30 90.00 1500.00 225 450 2.050 10000.000 0.000 -1.329
31 93.00 1500.00 220 531 2.050 10000.000 0.000 -1.329
32 96.00 1500.00 264 475 2.050 10000.000 0.000 -1.329
33 99.00 1500.00 249 466 2.050 10000.000 0.000 -1.329
34 102.00 1500.00 244 483 2.050 10000.000 0.000 -1.329
35 105.00 1500.00 255 451 2.050 10000.000 0.000 -1.329
36 108.00 1500.00 252 475 2.050 10000.000 0.000 -1.329
37 111.00 1500.00 217 523 2.050 10000.000 0.000 -1.329
38 114.00 1500.00 250 491 2.050 10000.000 0.000 -1.329
39 117.00 1500.00 246 446 2.050 10000.000 0.000 -1.329
40 120.00 1500.00 251 469 2.050 10000.000 0.000 -1.329
41 123.00 1500.00 231 449 2.050 10000.000 0.000 -1.329
42 126.00 1500.00 196 496 2.050 10000.000 0.000 -1.329
43 129.00 1500.00 224 478 2.050 10000.000 0.000 -1.329
44 132.00 1500.00 268 488 2.050 10000.000 0.000 -1.329
45 135.00 1500.00 209 469 2.050 10000.000 0.000 -1.329
46 138.00 1500.00 261 455 2.050 10000.000 0.000 -1.329
47 141.00 1500.00 230 416 2.050 10000.000 0.000 -1.329
48 144.00 1500.00 231 455 2.050 10000.000 0.000 -1.329
49 147.00 1500.00 245 520 2.050 10000.000 0.000 -1.329
50 150.00 1500.00 240 478 2.050 10000.000 0.000 -1.329
51 153.00 1500.00 242 482 2.050 10000.000 0.000 -1.329
52 156.00 1500.00 237 479 2.050 10000.000 0.000 -1.329
53 159.00 1500.00 228 468 2.050 10000.000 0.000 -1.329
54 162.00 1500.00 252 515 2.050 10000.000 0.000 -1.329
55 165.00 1500.00 226 450 2.050 10000.000 0.000 -1.329
56 168.00 1500.00 237 493 2.050 10000.000 0.000 -1.329
57 171.00 1500.00 231 481 2.050 10000.000 0.000 -1.329
58 174.00 1500.00 213 475 2.050 10000.000 0.000 -1.329
59 177.00 1500.00 263 486 2.050 10000.000 0.000 -1.329
60 180.00 1500.00 231 500 2.050 10000.000 0.000 -1.329
61 183.00 1500.00 237 468 2.050 10000.000 0.000 -1.329
62 186.00 1500.00 247 444 2.050 10000.000 0.000 -1.329
63 189.00 1500.00 255 490 2.050 10000.000 0.000 -1.329
64 192.00 1500.00 232 477 2.050 10000.000 0.000 -1.329
65 195.00 1500.00 239 483 2.050 10000.000 0.000 -1.329
66 198.00 1500.00 261 458 2.050 10000.000 0.000 -1.329
67 201.00 1500.00 254 427 2.050 10000.000 0.000 -1.329
68 204.00 1500.00 245 471 2.050 10000.000 0.000 -1.329
69 207.00 1500.00 248 491 2.050 10000.000 0.000 -1.329
70 210.00 1500.00 256 485 2.050 10000.000 0.000 -1.329
71 213.00 1500.00 220 470 2.050 10000.000 0.000 -1.329
72 216.00 1500.00 260 487 2.050 10000.000 0.000 -1.329
73 219.00 1500.00 277 469 2.050 10000.000 0.000 -1.329
74 222.00 1500.00 208 459 2.050 10000.000 0.000 -1.329
75 225.00 1500.00 245 461 2.050 10000.000 0.000 -1.329
76 228.00 1500.00 241 468 2.050 10000.000 0.000 -1.329
77 231.00 1500.00 243 466 2.050 10000.000 0.000 -1.329
78 234.00 1500.00 200 461 2.050 10000.000 0.000 -1.329
79 237.00 1500.00 254 519 2.050 10000.000 0.000 -1.329
80 240.00 1500.00 239 471 2.050 10000.000 0.000 -1.329
81 243.00 1500.00 253 499 2.050 10000.000 0.000 -1.329
82 246.00 1500.00 280 449 2.050 10000.000 0.000 -1.329
83 249.00 1500.00 228 459 2.050 10000.000 0.000 -1.329
84 252.00 1500.00 239 450 2.050 10000.000 0.000 -1.329
85 255.00 1500.00 227 401 2.050 10000.000 0.000 -1.329
86 258.00 1500.00 260 492 2.050 10000.000 0.000 -1.329
87 261.00 1500.00 217 446 2.050 10000.000 0.000 -1.329
88 264.00 1500.00 273 497 2.050 10000.000 0.000 -1.329
89 267.00 1500.00 217 479 2.050 10000.000 0.000 -1.329
90 270.00 1500.00 239 468 2.050 10000.000 0.000 -1.329
91 273.00 1500.00 237 503 2.050 10000.000 0.000 -1.329
92 276.00 1500.00 227 489 2.050 10000.000 0.000 -1.329
93 279.00 1500.00 233 487 2.050 10000.000 0.000 -1.329
94 282.00 1500.00 230 518 2.050 10000.000 0.000 -1.329
95 285.00 1500.00 222 481 2.050 10000.000 0.000 -1.329
96 288.00 1500.00 250 479 2.050 10000.000 0.000 -1.329
97 291.00 1500.00 268 472 2.050 10000.000 0.000 -1.329
98 294.00 1500.00 229 452 2.050 10000.000 0.000 -1.329
99 297.00 1500.00 229 466 2.050 10000.000 0.000 -1.329
100 300.00 1500.00 233 462 2.050 10000.000 0.000 -1.329
101 303.00 1500.00 225 512 2.050 10000.000 0.000 -1.329
102 306.00 1500.00 229 479 2.050 10000.000 0.000 -1.329
103 309.00 1500.00 227 472 2.050 10000.000 0.000 -1.329
104 312.00 1500.00 266 512 2.050 10000.000 0.000 -1.329
105 315.00 1500.00 251 436 2.050 10000.000 0.000 -1.329
106 318.00 1500.00 246 520 2.050 10000.000 0.000 -1.329
107 321.00 1500.00 236 440 2.050 10000.000 0.000 -1.329
108 324.00 1500.00 255 486 2.050 10000.000 0.000 -1.329
109 327.00 1500.00 207 478 2.050 10000.000 0.000 -1.329
110 330.00 1500.00 227 438 2.050 10000.000 0.000 -1.329
111 333.00 1500.00 245 486 2.050 10000.000 0.000 -1.329
112 336.00 1500.00 265 505 2.050 10000.000 0.000 -1.329
113 339.00 1500.00 246 475 2.050 10000.000 0.000 -1.329
114 342.00 1500.00 232 495 2.050 10000.000 0.000 -1.329
115 345.00 1500.00 231 455 2.050 10000.000 0.000 -1.329
116 348.00 1500.00 244 446 2.050 10000.000 0.000 -1.329
117 351.00 1500.00 210 471 2.050 10000.000 0.000 -1.329
118 354.00 1500.00 252 516 2.050 10000.000 0.000 -1.329
119 357.00 1500.00 251 493 2.050 10000.000 0.000 -1.329
120 360.00 1500.00 232 498 2.050 10000.000 0.000 -1.329
121 363.00 1500.00 235 502 2.050 10000.000 0.000 -1.329
122 366.00 1500.00 271 462 2.050 10000.000 0.000 -1.329
123 369.00 1500.00 250 438 2.050 10000.000 0.000 -1.329
124 372.00 1500.00 236 476 2.050 10000.000 0.000 -1.329
125 375.00 1500.00 258 476 2.050 10000.000 0.000 -1.329
126 378.00 1500.00 246 452 2.050 10000.000 0.000 -1.329
127 381.00 1500.00 243 504 2.050 10000.000 0.000 -1.329
128 384.00 1500.00 295 495 2.050 10000.000 0.000 -1.329
129 387.00 1500.00 231 455 2.050 10000.000 0.000 -1.329
130 390.00 1500.00 248 486 2.050 10000.000 0.000 -1.329
131 393.00 1500.00 246 416 2.050 10000.000 0.000 -1.329
132 396.00 1500.00 242 457 2.050 10000.000 0.000 -1.329
133 399.00 1500.00 229 511 2.050 10000.000 0.000 -1.329
134 402.00 1500.00 238 482 2.050 10000.000 0.000 -1.329
