# BinNR microsec tot-time (s)  O-Beam AUX Ampl_1(V) f_1(Hz) phase_1(deg) Ampl_2(V) f_2(Hz) phase_2(deg) chi(pos)
0 0.00 1200.01 97 407 0.912 3.100 10000.000 0.000
1 3.00 1200.01 179 787 0.912 3.100 10000.000 0.000
2 6.00 1200.01 206 815 0.912 3.100 10000.000 0.000
3 9.00 1200.01 230 755 0.912 3.100 10000.000 0.000
4 12.00 1200.01 206 782 0.912 3.100 10000.000 0.000
5 15.00 1200.01 222 803 0.912 3.100 10000.000 0.000
6 18.00 1200.01 264 823 0.912 3.100 10000.000 0.000
7 21.00 1200.01 236 808 0.912 3.100 10000.000 0.000
8 24.00 1200.01 280 772 0.912 3.100 10000.000 0.000
9 27.00 1200.01 262 783 0.912 3.100 10000.000 0.000
10 30.00 1200.01 276 786 0.912 3.100 10000.000 0.000
11 33.00 1200.01 294 772 0.912 3.100 10000.000 0.000
12 36.00 1200.01 294 794 0.912 3.100 10000.000 0.000
13 39.00 1200.01 325 810 0.912 3.100 10000.000 0.000
14 42.00 1200.01 281 927 0.912 3.100 10000.000 0.000
15 45.00 1200.01 296 890 0.912 3.100 10000.000 0.000
16 48.00 1200.01 283 997 0.912 3.100 10000.000 0.000
17 51.00 1200.01 271 929 0.912 3.100 10000.000 0.000
18 54.00 1200.01 281 986 0.912 3.100 10000.000 0.000
19 57.00 1200.01 263 972 0.912 3.100 10000.000 0.000
20 60.00 1200.01 266 898 0.912 3.100 10000.000 0.000
21 63.00 1200.01 229 857 0.912 3.100 10000.000 0.000
22 66.00 1200.01 221 785 0.912 3.100 10000.000 0.000
23 69.00 1200.01 219 732 0.912 3.100 10000.000 0.000
24 72.00 1200.01 190 639 0.912 3.100 10000.000 0.000
25 75.00 1200.01 182 654 0.912 3.100 10000.000 0.000
26 78.00 1200.01 209 609 0.912 3.100 10000.000 0.000
27 81.00 1200.01 184 603 0.912 3.100 10000.000 0.000
28 84.00 1200.01 198 543 0.912 3.100 10000.000 0.000
29 87.00 1200.01 164 525 0.912 3.100 10000.000 0.000
30 90.00 1200.01 180 557 0.912 3.100 10000.000 0.000
31 93.00 1200.01 162 507 0.912 3.100 10000.000 0.000
32 96.00 1200.01 182 547 0.912 3.100 10000.000 0.000
33 99.00 1200.01 199 583 0.912 3.100 10000.000 0.000
34 102.00 1200.01 182 611 0.912 3.100 10000.000 0.000
35 105.00 1200.01 175 634 0.912 3.100 10000.000 0.000
36 108.00 1200.01 229 688 0.912 3.100 10000.000 0.000
37 111.00 1200.01 224 698 0.912 3.100 10000.000 0.000
38 114.00 1200.01 258 711 0.912 3.100 10000.000 0.000
39 117.00 1200.01 237 772 0.912 3.100 10000.000 0.000
40 120.00 1200.01 306 817 0.912 3.100 10000.000 0.000
41 123.00 1200.01 265 906 0.912 3.100 10000.000 0.000
42 126.00 1200.01 264 922 0.912 3.100 10000.000 0.000
43 129.00 1200.01 260 930 0.912 3.100 10000.000 0.000
44 132.00 1200.01 284 929 0.912 3.100 10000.000 0.000
45 135.00 1200.01 256 983 0.912 3.100 10000.000 0.000
46 138.00 1200.01 255 911 0.912 3.100 10000.000 0.000
47 141.00 1200.01 251 1004 0.912 3.100 10000.000 0.000
48 144.00 1200.01 278 977 0.912 3.100 10000.000 0.000
49 147.00 1200.01 226 931 0.912 3.100 10000.000 0.000
50 150.00 1200.01 263 900 0.912 3.100 10000.000 0.000
51 153.00 1200.01 240 915 0.912 3.100 10000.000 0.000
52 156.00 1200.01 231 875 0.912 3.100 10000.000 0.000
53 159.00 1200.01 245 837 0.912 3.100 10000.000 0.000
54 162.00 1200.01 231 842 0.912 3.100 10000.000 0.000
55 165.00 1200.01 217 804 0.912 3.100 10000.000 0.000
56 168.00 1200.01 253 741 0.912 3.100 10000.000 0.000
57 171.00 1200.01 253 680 0.912 3.100 10000.000 0.000
58 174.00 1200.01 228 648 0.912 3.100 10000.000 0.000
59 177.00 1200.01 252 659 0.912 3.100 10000.000 0.000
60 180.00 1200.01 239 597 0.912 3.100 10000.000 0.000
61 183.00 1200.01 264 579 0.912 3.100 10000.000 0.000
62 186.00 1200.01 241 566 0.912 3.100 10000.000 0.000
63 189.00 1200.01 255 560 0.912 3.100 10000.000 0.000
64 192.00 1200.01 249 588 0.912 3.100 10000.000 0.000
65 195.00 1200.01 249 545 0.912 3.100 10000.000 0.000
66 198.00 1200.01 223 579 0.912 3.100 10000.000 0.000
67 201.00 1200.01 224 550 0.912 3.100 10000.000 0.000
68 204.00 1200.01 246 631 0.912 3.100 10000.000 0.000
69 207.00 1200.01 245 677 0.912 3.100 10000.000 0.000
70 210.00 1200.01 225 673 0.912 3.100 10000.000 0.000
71 213.00 1200.01 217 766 0.912 3.100 10000.000 0.000
72 216.00 1200.01 253 760 0.912 3.100 10000.000 0.000
73 219.00 1200.01 269 823 0.912 3.100 10000.000 0.000
74 222.00 1200.01 235 876 0.912 3.100 10000.000 0.000
75 225.00 1200.01 222 880 0.912 3.100 10000.000 0.000
76 228.00 1200.01 237 907 0.912 3.100 10000.000 0.000
77 231.00 1200.01 218 955 0.912 3.100 10000.000 0.000
78 234.00 1200.01 240 978 0.912 3.100 10000.000 0.000
79 237.00 1200.01 219 970 0.912 3.100 10000.000 0.000
80 240.00 1200.01 228 902 0.912 3.100 10000.000 0.000
81 243.00 1200.01 229 903 0.912 3.100 10000.000 0.000
82 246.00 1200.01 212 902 0.912 3.100 10000.000 0.000
83 249.00 1200.01 220 759 0.912 3.100 10000.000 0.000
84 252.00 1200.01 241 771 0.912 3.100 10000.000 0.000
85 255.00 1200.01 214 723 0.912 3.100 10000.000 0.000
86 258.00 1200.01 244 743 0.912 3.100 10000.000 0.000
87 261.00 1200.01 211 775 0.912 3.100 10000.000 0.000
88 264.00 1200.01 287 769 0.912 3.100 10000.000 0.000
89 267.00 1200.01 257 726 0.912 3.100 10000.000 0.000
90 270.00 1200.01 227 826 0.912 3.100 10000.000 0.000
91 273.00 1200.01 207 853 0.912 3.100 10000.000 0.000
92 276.00 1200.01 226 829 0.912 3.100 10000.000 0.000
93 279.00 1200.01 233 790 0.912 3.100 10000.000 0.000
94 282.00 1200.01 216 779 0.912 3.100 10000.000 0.000
95 285.00 1200.01 223 785 0.912 3.100 10000.000 0.000
96 288.00 1200.01 242 729 0.912 3.100 10000.000 0.000
97 291.00 1200.01 254 798 0.912 3.100 10000.000 0.000
98 294.00 1200.01 263 806 0.912 3.100 10000.000 0.000
99 297.00 1200.01 227 749 0.912 3.100 10000.000 0.000
100 300.00 1200.01 236 800 0.912 3.100 10000.000 0.000
101 303.00 1200.01 247 751 0.912 3.100 10000.000 0.000
102 306.00 1200.01 233 745 0.912 3.100 10000.000 0.000
103 309.00 1200.01 244 799 0.912 3.100 10000.000 0.000
104 312.00 1200.01 227 823 0.912 3.100 10000.000 0.000
105 315.00 1200.01 248 732 0.912 3.100 10000.000 0.000
106 318.00 1200.01 211 813 0.912 3.100 10000.000 0.000
107 321.00 1200.01 224 786 0.912 3.100 10000.000 0.000
108 324.00 1200.01 247 831 0.912 3.100 10000.000 0.000
109 327.00 1200.01 246 761 0.912 3.100 10000.000 0.000
110 330.00 1200.01 229 812 0.912 3.100 10000.000 0.000
111 333.00 1200.01 204 779 0.912 3.100 10000.000 0.000
112 336.00 1200.01 259 787 0.912 3.100 10000.000 0.000
113 339.00 1200.01 235 769 0.912 3.100 10000.000 0.000
114 342.00 1200.01 306 820 0.912 3.100 10000.000 0.000
115 345.00 1200.01 247 755 0.912 3.100 10000.000 0.000
116 348.00 1200.01 287 782 0.912 3.100 10000.000 0.000
117 351.00 1200.01 291 740 0.912 3.100 10000.000 0.000
118 354.00 1200.01 291 807 0.912 3.100 10000.000 0.000
119 357.00 1200.01 281 752 0.912 3.100 10000.000 0.000
120 360.00 1200.01 255 748 0.912 3.100 10000.000 0.000
121 363.00 1200.01 250 743 0.912 3.100 10000.000 0.000
122 366.00 1200.01 262 719 0.912 3.100 10000.000 0.000
123 369.00 1200.01 209 722 0.912 3.100 10000.000 0.000
124 372.00 1200.01 206 782 0.912 3.100 10000.000 0.000
125 375.00 1200.01 220 799 0.912 3.100 10000.000 0.000
126 378.00 1200.01 180 767 0.912 3.100 10000.000 0.000
127 381.00 1200.01 186 805 0.912 3.100 10000.000 0.000
128 384.00 1200.01 192 770 0.912 3.100 10000.000 0.000
129 387.00 1200.01 165 714 0.912 3.100 10000.000 0.000
130 390.00 1200.01 200 805 0.912 3.100 10000.000 0.000
131 393.00 1200.01 178 787 0.912 3.100 10000.000 0.000
132 396.00 1200.01 172 805 0.912 3.100 10000.000 0.000
133 399.00 1200.01 171 727 0.912 3.100 10000.000 0.000
134 402.00 1200.01 186 778 0.912 3.100 10000.000 0.000
