# BinNR microsec tot-time (s)  O-Beam AUX Ampl(V) f(Hz) phase(deg) chi(pos)
0 0.00 1200.01 150 485 1.100 10000.000 0.000 -0.835
1 3.00 1200.01 299 933 1.100 10000.000 0.000 -0.835
2 6.00 1200.01 318 970 1.100 10000.000 0.000 -0.835
3 9.00 1200.01 274 969 1.100 10000.000 0.000 -0.835
4 12.00 1200.01 308 992 1.100 10000.000 0.000 -0.835
5 15.00 1200.01 253 968 1.100 10000.000 0.000 -0.835
6 18.00 1200.01 254 959 1.100 10000.000 0.000 -0.835
7 21.00 1200.01 246 975 1.100 10000.000 0.000 -0.835
8 24.00 1200.01 249 990 1.100 10000.000 0.000 -0.835
9 27.00 1200.01 229 905 1.100 10000.000 0.000 -0.835
10 30.00 1200.01 211 934 1.100 10000.000 0.000 -0.835
11 33.00 1200.01 206 977 1.100 10000.000 0.000 -0.835
12 36.00 1200.01 234 941 1.100 10000.000 0.000 -0.835
13 39.00 1200.01 234 902 1.100 10000.000 0.000 -0.835
14 42.00 1200.01 244 913 1.100 10000.000 0.000 -0.835
15 45.00 1200.01 255 975 1.100 10000.000 0.000 -0.835
16 48.00 1200.01 229 974 1.100 10000.000 0.000 -0.835
17 51.00 1200.01 238 1005 1.100 10000.000 0.000 -0.835
18 54.00 1200.01 246 990 1.100 10000.000 0.000 -0.835
19 57.00 1200.01 269 896 1.100 10000.000 0.000 -0.835
20 60.00 1200.01 308 948 1.100 10000.000 0.000 -0.835
21 63.00 1200.01 259 947 1.100 10000.000 0.000 -0.835
22 66.00 1200.01 306 983 1.100 10000.000 0.000 -0.835
23 69.00 1200.01 324 938 1.100 10000.000 0.000 -0.835
24 72.00 1200.01 317 933 1.100 10000.000 0.000 -0.835
25 75.00 1200.01 320 905 1.100 10000.000 0.000 -0.835
26 78.00 1200.01 279 862 1.100 10000.000 0.000 -0.835
27 81.00 1200.01 321 815 1.100 10000.000 0.000 -0.835
28 84.00 1200.01 331 814 1.100 10000.000 0.000 -0.835
29 87.00 1200.01 291 783 1.100 10000.000 0.000 -0.835
30 90.00 1200.01 319 760 1.100 10000.000 0.000 -0.835
31 93.00 1200.01 323 726 1.100 10000.000 0.000 -0.835
32 96.00 1200.01 321 745 1.100 10000.000 0.000 -0.835
33 99.00 1200.01 326 755 1.100 10000.000 0.000 -0.835
34 102.00 1200.01 309 824 1.100 10000.000 0.000 -0.835
35 105.00 1200.01 303 778 1.100 10000.000 0.000 -0.835
36 108.00 1200.01 307 776 1.100 10000.000 0.000 -0.835
37 111.00 1200.01 279 753 1.100 10000.000 0.000 -0.835
38 114.00 1200.01 286 804 1.100 10000.000 0.000 -0.835
39 117.00 1200.01 257 910 1.100 10000.000 0.000 -0.835
40 120.00 1200.01 264 916 1.100 10000.000 0.000 -0.835
41 123.00 1200.01 256 952 1.100 10000.000 0.000 -0.835
42 126.00 1200.01 239 974 1.100 10000.000 0.000 -0.835
43 129.00 1200.01 236 888 1.100 10000.000 0.000 -0.835
44 132.00 1200.01 221 966 1.100 10000.000 0.000 -0.835
45 135.00 1200.01 206 944 1.100 10000.000 0.000 -0.835
46 138.00 1200.01 232 993 1.100 10000.000 0.000 -0.835
47 141.00 1200.01 212 986 1.100 10000.000 0.000 -0.835
48 144.00 1200.01 240 1029 1.100 10000.000 0.000 -0.835
49 147.00 1200.01 241 972 1.100 10000.000 0.000 -0.835
50 150.00 1200.01 261 965 1.100 10000.000 0.000 -0.835
51 153.00 1200.01 261 966 1.100 10000.000 0.000 -0.835
52 156.00 1200.01 287 972 1.100 10000.000 0.000 -0.835
53 159.00 1200.01 269 937 1.100 10000.000 0.000 -0.835
54 162.00 1200.01 290 993 1.100 10000.000 0.000 -0.835
55 165.00 1200.01 285 992 1.100 10000.000 0.000 -0.835
56 168.00 1200.01 294 927 1.100 10000.000 0.000 -0.835
57 171.00 1200.01 286 920 1.100 10000.000 0.000 -0.835
58 174.00 1200.01 316 901 1.100 10000.000 0.000 -0.835
59 177.00 1200.01 325 891 1.100 10000.000 0.000 -0.835
60 180.00 1200.01 312 909 1.100 10000.000 0.000 -0.835
61 183.00 1200.01 332 790 1.100 10000.000 0.000 -0.835
62 186.00 1200.01 337 876 1.100 10000.000 0.000 -0.835
63 189.00 1200.01 342 793 1.100 10000.000 0.000 -0.835
64 192.00 1200.01 363 788 1.100 10000.000 0.000 -0.835
65 195.00 1200.01 322 770 1.100 10000.000 0.000 -0.835
66 198.00 1200.01 328 753 1.100 10000.000 0.000 -0.835
67 201.00 1200.01 318 750 1.100 10000.000 0.000 -0.835
68 204.00 1200.01 280 743 1.100 10000.000 0.000 -0.835
69 207.00 1200.01 302 784 1.100 10000.000 0.000 -0.835
70 210.00 1200.01 325 815 1.100 10000.000 0.000 -0.835
71 213.00 1200.01 298 878 1.100 10000.000 0.000 -0.835
72 216.00 1200.01 279 855 1.100 10000.000 0.000 -0.835
73 219.00 1200.01 248 856 1.100 10000.000 0.000 -0.835
74 222.00 1200.01 284 864 1.100 10000.000 0.000 -0.835
75 225.00 1200.01 229 902 1.100 10000.000 0.000 -0.835
76 228.00 1200.01 208 959 1.100 10000.000 0.000 -0.835
77 231.00 1200.01 220 1038 1.100 10000.000 0.000 -0.835
78 234.00 1200.01 248 973 1.100 10000.000 0.000 -0.835
79 237.00 1200.01 239 956 1.100 10000.000 0.000 -0.835
80 240.00 1200.01 230 985 1.100 10000.000 0.000 -0.835
81 243.00 1200.01 242 996 1.100 10000.000 0.000 -0.835
82 246.00 1200.01 230 969 1.100 10000.000 0.000 -0.835
83 249.00 1200.01 243 936 1.100 10000.000 0.000 -0.835
84 252.00 1200.01 241 1012 1.100 10000.000 0.000 -0.835
85 255.00 1200.01 256 1024 1.100 10000.000 0.000 -0.835
86 258.00 1200.01 291 1004 1.100 10000.000 0.000 -0.835
87 261.00 1200.01 275 975 1.100 10000.000 0.000 -0.835
88 264.00 1200.01 303 991 1.100 10000.000 0.000 -0.835
89 267.00 1200.01 322 946 1.100 10000.000 0.000 -0.835
90 270.00 1200.01 302 945 1.100 10000.000 0.000 -0.835
91 273.00 1200.01 322 869 1.100 10000.000 0.000 -0.835
92 276.00 1200.01 321 944 1.100 10000.000 0.000 -0.835
93 279.00 1200.01 307 813 1.100 10000.000 0.000 -0.835
94 282.00 1200.01 323 785 1.100 10000.000 0.000 -0.835
95 285.00 1200.01 313 782 1.100 10000.000 0.000 -0.835
96 288.00 1200.01 310 791 1.100 10000.000 0.000 -0.835
97 291.00 1200.01 289 810 1.100 10000.000 0.000 -0.835
98 294.00 1200.01 296 724 1.100 10000.000 0.000 -0.835
99 297.00 1200.01 300 734 1.100 10000.000 0.000 -0.835
100 300.00 1200.01 306 732 1.100 10000.000 0.000 -0.835
101 303.00 1200.01 315 787 1.100 10000.000 0.000 -0.835
102 306.00 1200.01 275 759 1.100 10000.000 0.000 -0.835
103 309.00 1200.01 292 808 1.100 10000.000 0.000 -0.835
104 312.00 1200.01 322 830 1.100 10000.000 0.000 -0.835
105 315.00 1200.01 288 823 1.100 10000.000 0.000 -0.835
106 318.00 1200.01 310 858 1.100 10000.000 0.000 -0.835
107 321.00 1200.01 294 939 1.100 10000.000 0.000 -0.835
108 324.00 1200.01 299 923 1.100 10000.000 0.000 -0.835
109 327.00 1200.01 297 904 1.100 10000.000 0.000 -0.835
110 330.00 1200.01 337 998 1.100 10000.000 0.000 -0.835
111 333.00 1200.01 292 960 1.100 10000.000 0.000 -0.835
112 336.00 1200.01 296 970 1.100 10000.000 0.000 -0.835
113 339.00 1200.01 304 1020 1.100 10000.000 0.000 -0.835
114 342.00 1200.01 317 1013 1.100 10000.000 0.000 -0.835
115 345.00 1200.01 287 935 1.100 10000.000 0.000 -0.835
116 348.00 1200.01 295 958 1.100 10000.000 0.000 -0.835
117 351.00 1200.01 284 984 1.100 10000.000 0.000 -0.835
118 354.00 1200.01 265 978 1.100 10000.000 0.000 -0.835
119 357.00 1200.01 253 1033 1.100 10000.000 0.000 -0.835
120 360.00 1200.01 228 991 1.100 10000.000 0.000 -0.835
121 363.00 1200.01 239 961 1.100 10000.000 0.000 -0.835
122 366.00 1200.01 213 919 1.100 10000.000 0.000 -0.835
123 369.00 1200.01 229 949 1.100 10000.000 0.000 -0.835
124 372.00 1200.01 234 895 1.100 10000.000 0.000 -0.835
125 375.00 1200.01 214 856 1.100 10000.000 0.000 -0.835
126 378.00 1200.01 244 920 1.100 10000.000 0.000 -0.835
127 381.00 1200.01 272 854 1.100 10000.000 0.000 -0.835
128 384.00 1200.01 288 879 1.100 10000.000 0.000 -0.835
129 387.00 1200.01 274 782 1.100 10000.000 0.000 -0.835
130 390.00 1200.01 300 832 1.100 10000.000 0.000 -0.835
131 393.00 1200.01 293 788 1.100 10000.000 0.000 -0.835
132 396.00 1200.01 265 728 1.100 10000.000 0.000 -0.835
133 399.00 1200.01 305 779 1.100 10000.000 0.000 -0.835
134 402.00 1200.01 279 797 1.100 10000.000 0.000 -0.835
135 405.00 1200.01 292 755 1.100 10000.000 0.000 -0.835
136 408.00 1200.01 335 774 1.100 10000.000 0.000 -0.835
137 411.00 1200.01 321 769 1.100 10000.000 0.000 -0.835
138 414.00 1200.01 309 815 1.100 10000.000 0.000 -0.835
139 417.00 1200.01 304 827 1.100 10000.000 0.000 -0.835
140 420.00 1200.01 314 938 1.100 10000.000 0.000 -0.835
141 423.00 1200.01 340 941 1.100 10000.000 0.000 -0.835
142 426.00 1200.01 310 945 1.100 10000.000 0.000 -0.835
143 429.00 1200.01 333 934 1.100 10000.000 0.000 -0.835
144 432.00 1200.01 310 988 1.100 10000.000 0.000 -0.835
