# BinNR microsec tot-time (s)  O-Beam AUX Ampl_1(V) f_1(Hz) phase_1(deg) Ampl_2(V) f_2(Hz) phase_2(deg) chi(pos)
0 0.00 1200.02 202 491 3.100 10000.000 0.000 4.000 15000.000 0.000 1.165
1 3.00 1200.02 356 991 3.100 10000.000 0.000 4.000 15000.000 0.000 1.165
2 6.00 1200.02 384 1008 3.100 10000.000 0.000 4.000 15000.000 0.000 1.165
3 9.00 1200.02 342 971 3.100 10000.000 0.000 4.000 15000.000 0.000 1.165
4 12.00 1200.02 383 1014 3.100 10000.000 0.000 4.000 15000.000 0.000 1.165
5 15.00 1200.02 368 966 3.100 10000.000 0.000 4.000 15000.000 0.000 1.165
6 18.00 1200.02 368 1016 3.100 10000.000 0.000 4.000 15000.000 0.000 1.165
7 21.00 1200.02 386 916 3.100 10000.000 0.000 4.000 15000.000 0.000 1.165
8 24.00 1200.02 372 993 3.100 10000.000 0.000 4.000 15000.000 0.000 1.165
9 27.00 1200.02 353 973 3.100 10000.000 0.000 4.000 15000.000 0.000 1.165
10 30.00 1200.02 371 956 3.100 10000.000 0.000 4.000 15000.000 0.000 1.165
11 33.00 1200.02 366 967 3.100 10000.000 0.000 4.000 15000.000 0.000 1.165
12 36.00 1200.02 401 961 3.100 10000.000 0.000 4.000 15000.000 0.000 1.165
13 39.00 1200.02 374 1003 3.100 10000.000 0.000 4.000 15000.000 0.000 1.165
14 42.00 1200.02 365 982 3.100 10000.000 0.000 4.000 15000.000 0.000 1.165
15 45.00 1200.02 353 1035 3.100 10000.000 0.000 4.000 15000.000 0.000 1.165
16 48.00 1200.02 369 980 3.100 10000.000 0.000 4.000 15000.000 0.000 1.165
17 51.00 1200.02 354 934 3.100 10000.000 0.000 4.000 15000.000 0.000 1.165
18 54.00 1200.02 374 973 3.100 10000.000 0.000 4.000 15000.000 0.000 1.165
19 57.00 1200.02 334 982 3.100 10000.000 0.000 4.000 15000.000 0.000 1.165
20 60.00 1200.02 332 1029 3.100 10000.000 0.000 4.000 15000.000 0.000 1.165
21 63.00 1200.02 342 997 3.100 10000.000 0.000 4.000 15000.000 0.000 1.165
22 66.00 1200.02 298 1036 3.100 10000.000 0.000 4.000 15000.000 0.000 1.165
23 69.00 1200.02 276 922 3.100 10000.000 0.000 4.000 15000.000 0.000 1.165
24 72.00 1200.02 246 967 3.100 10000.000 0.000 4.000 15000.000 0.000 1.165
25 75.00 1200.02 218 897 3.100 10000.000 0.000 4.000 15000.000 0.000 1.165
26 78.00 1200.02 237 904 3.100 10000.000 0.000 4.000 15000.000 0.000 1.165
27 81.00 1200.02 249 875 3.100 10000.000 0.000 4.000 15000.000 0.000 1.165
28 84.00 1200.02 239 796 3.100 10000.000 0.000 4.000 15000.000 0.000 1.165
29 87.00 1200.02 292 769 3.100 10000.000 0.000 4.000 15000.000 0.000 1.165
30 90.00 1200.02 290 847 3.100 10000.000 0.000 4.000 15000.000 0.000 1.165
31 93.00 1200.02 322 835 3.100 10000.000 0.000 4.000 15000.000 0.000 1.165
32 96.00 1200.02 329 847 3.100 10000.000 0.000 4.000 15000.000 0.000 1.165
33 99.00 1200.02 326 956 3.100 10000.000 0.000 4.000 15000.000 0.000 1.165
34 102.00 1200.02 331 999 3.100 10000.000 0.000 4.000 15000.000 0.000 1.165
35 105.00 1200.02 349 972 3.100 10000.000 0.000 4.000 15000.000 0.000 1.165
36 108.00 1200.02 339 1037 3.100 10000.000 0.000 4.000 15000.000 0.000 1.165
37 111.00 1200.02 287 1044 3.100 10000.000 0.000 4.000 15000.000 0.000 1.165
38 114.00 1200.02 334 1100 3.100 10000.000 0.000 4.000 15000.000 0.000 1.165
39 117.00 1200.02 285 1039 3.100 10000.000 0.000 4.000 15000.000 0.000 1.165
40 120.00 1200.02 338 998 3.100 10000.000 0.000 4.000 15000.000 0.000 1.165
41 123.00 1200.02 329 881 3.100 10000.000 0.000 4.000 15000.000 0.000 1.165
42 126.00 1200.02 352 937 3.100 10000.000 0.000 4.000 15000.000 0.000 1.165
43 129.00 1200.02 345 940 3.100 10000.000 0.000 4.000 15000.000 0.000 1.165
44 132.00 1200.02 343 1035 3.100 10000.000 0.000 4.000 15000.000 0.000 1.165
45 135.00 1200.02 302 1055 3.100 10000.000 0.000 4.000 15000.000 0.000 1.165
46 138.00 1200.02 341 1111 3.100 10000.000 0.000 4.000 15000.000 0.000 1.165
47 141.00 1200.02 307 1048 3.100 10000.000 0.000 4.000 15000.000 0.000 1.165
48 144.00 1200.02 307 1023 3.100 10000.000 0.000 4.000 15000.000 0.000 1.165
49 147.00 1200.02 270 976 3.100 10000.000 0.000 4.000 15000.000 0.000 1.165
50 150.00 1200.02 280 1070 3.100 10000.000 0.000 4.000 15000.000 0.000 1.165
51 153.00 1200.02 287 1028 3.100 10000.000 0.000 4.000 15000.000 0.000 1.165
52 156.00 1200.02 313 1032 3.100 10000.000 0.000 4.000 15000.000 0.000 1.165
53 159.00 1200.02 293 1059 3.100 10000.000 0.000 4.000 15000.000 0.000 1.165
54 162.00 1200.02 340 1010 3.100 10000.000 0.000 4.000 15000.000 0.000 1.165
55 165.00 1200.02 363 861 3.100 10000.000 0.000 4.000 15000.000 0.000 1.165
56 168.00 1200.02 374 742 3.100 10000.000 0.000 4.000 15000.000 0.000 1.165
57 171.00 1200.02 309 598 3.100 10000.000 0.000 4.000 15000.000 0.000 1.165
58 174.00 1200.02 342 511 3.100 10000.000 0.000 4.000 15000.000 0.000 1.165
59 177.00 1200.02 336 414 3.100 10000.000 0.000 4.000 15000.000 0.000 1.165
60 180.00 1200.02 356 379 3.100 10000.000 0.000 4.000 15000.000 0.000 1.165
61 183.00 1200.02 391 378 3.100 10000.000 0.000 4.000 15000.000 0.000 1.165
62 186.00 1200.02 371 440 3.100 10000.000 0.000 4.000 15000.000 0.000 1.165
63 189.00 1200.02 336 485 3.100 10000.000 0.000 4.000 15000.000 0.000 1.165
64 192.00 1200.02 347 622 3.100 10000.000 0.000 4.000 15000.000 0.000 1.165
65 195.00 1200.02 347 792 3.100 10000.000 0.000 4.000 15000.000 0.000 1.165
66 198.00 1200.02 344 902 3.100 10000.000 0.000 4.000 15000.000 0.000 1.165
67 201.00 1200.02 344 1013 3.100 10000.000 0.000 4.000 15000.000 0.000 1.165
68 204.00 1200.02 326 1098 3.100 10000.000 0.000 4.000 15000.000 0.000 1.165
69 207.00 1200.02 270 1095 3.100 10000.000 0.000 4.000 15000.000 0.000 1.165
70 210.00 1200.02 321 1043 3.100 10000.000 0.000 4.000 15000.000 0.000 1.165
71 213.00 1200.02 324 948 3.100 10000.000 0.000 4.000 15000.000 0.000 1.165
72 216.00 1200.02 335 865 3.100 10000.000 0.000 4.000 15000.000 0.000 1.165
73 219.00 1200.02 336 898 3.100 10000.000 0.000 4.000 15000.000 0.000 1.165
74 222.00 1200.02 377 1001 3.100 10000.000 0.000 4.000 15000.000 0.000 1.165
75 225.00 1200.02 340 921 3.100 10000.000 0.000 4.000 15000.000 0.000 1.165
76 228.00 1200.02 372 1046 3.100 10000.000 0.000 4.000 15000.000 0.000 1.165
77 231.00 1200.02 404 1090 3.100 10000.000 0.000 4.000 15000.000 0.000 1.165
78 234.00 1200.02 354 1064 3.100 10000.000 0.000 4.000 15000.000 0.000 1.165
79 237.00 1200.02 359 978 3.100 10000.000 0.000 4.000 15000.000 0.000 1.165
80 240.00 1200.02 327 856 3.100 10000.000 0.000 4.000 15000.000 0.000 1.165
81 243.00 1200.02 351 730 3.100 10000.000 0.000 4.000 15000.000 0.000 1.165
82 246.00 1200.02 370 701 3.100 10000.000 0.000 4.000 15000.000 0.000 1.165
83 249.00 1200.02 352 538 3.100 10000.000 0.000 4.000 15000.000 0.000 1.165
84 252.00 1200.02 414 542 3.100 10000.000 0.000 4.000 15000.000 0.000 1.165
85 255.00 1200.02 358 553 3.100 10000.000 0.000 4.000 15000.000 0.000 1.165
86 258.00 1200.02 406 592 3.100 10000.000 0.000 4.000 15000.000 0.000 1.165
87 261.00 1200.02 402 625 3.100 10000.000 0.000 4.000 15000.000 0.000 1.165
88 264.00 1200.02 384 748 3.100 10000.000 0.000 4.000 15000.000 0.000 1.165
89 267.00 1200.02 388 859 3.100 10000.000 0.000 4.000 15000.000 0.000 1.165
90 270.00 1200.02 333 929 3.100 10000.000 0.000 4.000 15000.000 0.000 1.165
91 273.00 1200.02 356 956 3.100 10000.000 0.000 4.000 15000.000 0.000 1.165
92 276.00 1200.02 373 1105 3.100 10000.000 0.000 4.000 15000.000 0.000 1.165
93 279.00 1200.02 381 1019 3.100 10000.000 0.000 4.000 15000.000 0.000 1.165
94 282.00 1200.02 415 1105 3.100 10000.000 0.000 4.000 15000.000 0.000 1.165
95 285.00 1200.02 401 986 3.100 10000.000 0.000 4.000 15000.000 0.000 1.165
96 288.00 1200.02 414 1085 3.100 10000.000 0.000 4.000 15000.000 0.000 1.165
97 291.00 1200.02 370 1083 3.100 10000.000 0.000 4.000 15000.000 0.000 1.165
98 294.00 1200.02 389 1081 3.100 10000.000 0.000 4.000 15000.000 0.000 1.165
99 297.00 1200.02 385 955 3.100 10000.000 0.000 4.000 15000.000 0.000 1.165
100 300.00 1200.02 383 937 3.100 10000.000 0.000 4.000 15000.000 0.000 1.165
101 303.00 1200.02 382 793 3.100 10000.000 0.000 4.000 15000.000 0.000 1.165
102 306.00 1200.02 354 731 3.100 10000.000 0.000 4.000 15000.000 0.000 1.165
103 309.00 1200.02 407 625 3.100 10000.000 0.000 4.000 15000.000 0.000 1.165
104 312.00 1200.02 348 658 3.100 10000.000 0.000 4.000 15000.000 0.000 1.165
105 315.00 1200.02 379 681 3.100 10000.000 0.000 4.000 15000.000 0.000 1.165
106 318.00 1200.02 386 752 3.100 10000.000 0.000 4.000 15000.000 0.000 1.165
107 321.00 1200.02 379 912 3.100 10000.000 0.000 4.000 15000.000 0.000 1.165
108 324.00 1200.02 398 992 3.100 10000.000 0.000 4.000 15000.000 0.000 1.165
109 327.00 1200.02 392 1035 3.100 10000.000 0.000 4.000 15000.000 0.000 1.165
110 330.00 1200.02 374 1130 3.100 10000.000 0.000 4.000 15000.000 0.000 1.165
111 333.00 1200.02 338 1017 3.100 10000.000 0.000 4.000 15000.000 0.000 1.165
112 336.00 1200.02 355 1024 3.100 10000.000 0.000 4.000 15000.000 0.000 1.165
113 339.00 1200.02 413 984 3.100 10000.000 0.000 4.000 15000.000 0.000 1.165
114 342.00 1200.02 364 992 3.100 10000.000 0.000 4.000 15000.000 0.000 1.165
115 345.00 1200.02 385 959 3.100 10000.000 0.000 4.000 15000.000 0.000 1.165
116 348.00 1200.02 373 962 3.100 10000.000 0.000 4.000 15000.000 0.000 1.165
117 351.00 1200.02 406 991 3.100 10000.000 0.000 4.000 15000.000 0.000 1.165
118 354.00 1200.02 369 1048 3.100 10000.000 0.000 4.000 15000.000 0.000 1.165
119 357.00 1200.02 385 985 3.100 10000.000 0.000 4.000 15000.000 0.000 1.165
120 360.00 1200.02 384 970 3.100 10000.000 0.000 4.000 15000.000 0.000 1.165
121 363.00 1200.02 377 1041 3.100 10000.000 0.000 4.000 15000.000 0.000 1.165
122 366.00 1200.02 378 1002 3.100 10000.000 0.000 4.000 15000.000 0.000 1.165
123 369.00 1200.02 378 990 3.100 10000.000 0.000 4.000 15000.000 0.000 1.165
124 372.00 1200.02 353 985 3.100 10000.000 0.000 4.000 15000.000 0.000 1.165
125 375.00 1200.02 352 1009 3.100 10000.000 0.000 4.000 15000.000 0.000 1.165
126 378.00 1200.02 341 1057 3.100 10000.000 0.000 4.000 15000.000 0.000 1.165
127 381.00 1200.02 341 972 3.100 10000.000 0.000 4.000 15000.000 0.000 1.165
128 384.00 1200.02 335 979 3.100 10000.000 0.000 4.000 15000.000 0.000 1.165
129 387.00 1200.02 361 947 3.100 10000.000 0.000 4.000 15000.000 0.000 1.165
130 390.00 1200.02 305 996 3.100 10000.000 0.000 4.000 15000.000 0.000 1.165
131 393.00 1200.02 336 1029 3.100 10000.000 0.000 4.000 15000.000 0.000 1.165
132 396.00 1200.02 359 1018 3.100 10000.000 0.000 4.000 15000.000 0.000 1.165
133 399.00 1200.02 345 1013 3.100 10000.000 0.000 4.000 15000.000 0.000 1.165
134 402.00 1200.02 347 991 3.100 10000.000 0.000 4.000 15000.000 0.000 1.165
