# BinNR microsec tot-time (s)  O-Beam AUX Ampl(V) f(Hz) phase(deg) chi(pos)
0 0.00 1500.02 138 237 2.050 10000.000 0.000 0.659
1 3.00 1500.02 240 494 2.050 10000.000 0.000 0.659
2 6.00 1500.02 247 518 2.050 10000.000 0.000 0.659
3 9.00 1500.02 257 492 2.050 10000.000 0.000 0.659
4 12.00 1500.02 275 503 2.050 10000.000 0.000 0.659
5 15.00 1500.02 254 471 2.050 10000.000 0.000 0.659
6 18.00 1500.02 260 529 2.050 10000.000 0.000 0.659
7 21.00 1500.02 215 487 2.050 10000.000 0.000 0.659
8 24.00 1500.02 216 508 2.050 10000.000 0.000 0.659
9 27.00 1500.02 248 512 2.050 10000.000 0.000 0.659
10 30.00 1500.02 242 550 2.050 10000.000 0.000 0.659
11 33.00 1500.02 258 469 2.050 10000.000 0.000 0.659
12 36.00 1500.02 250 469 2.050 10000.000 0.000 0.659
13 39.00 1500.02 241 475 2.050 10000.000 0.000 0.659
14 42.00 1500.02 269 496 2.050 10000.000 0.000 0.659
15 45.00 1500.02 226 481 2.050 10000.000 0.000 0.659
16 48.00 1500.02 240 521 2.050 10000.000 0.000 0.659
17 51.00 1500.02 215 481 2.050 10000.000 0.000 0.659
18 54.00 1500.02 248 482 2.050 10000.000 0.000 0.659
19 57.00 1500.02 210 483 2.050 10000.000 0.000 0.659
20 60.00 1500.02 250 516 2.050 10000.000 0.000 0.659
21 63.00 1500.02 266 466 2.050 10000.000 0.000 0.659
22 66.00 1500.02 234 515 2.050 10000.000 0.000 0.659
23 69.00 1500.02 254 496 2.050 10000.000 0.000 0.659
24 72.00 1500.02 262 511 2.050 10000.000 0.000 0.659
25 75.00 1500.02 267 507 2.050 10000.000 0.000 0.659
26 78.00 1500.02 248 520 2.050 10000.000 0.000 0.659
27 81.00 1500.02 253 485 2.050 10000.000 0.000 0.659
28 84.00 1500.02 230 434 2.050 10000.000 0.000 0.659
29 87.00 1500.02 265 538 2.050 10000.000 0.000 0.659
30 90.00 1500.02 243 441 2.050 10000.000 0.000 0.659
31 93.00 1500.02 245 530 2.050 10000.000 0.000 0.659
32 96.00 1500.02 255 491 2.050 10000.000 0.000 0.659
33 99.00 1500.02 253 462 2.050 10000.000 0.000 0.659
34 102.00 1500.02 238 501 2.050 10000.000 0.000 0.659
35 105.00 1500.02 224 459 2.050 10000.000 0.000 0.659
36 108.00 1500.02 249 477 2.050 10000.000 0.000 0.659
37 111.00 1500.02 257 517 2.050 10000.000 0.000 0.659
38 114.00 1500.02 258 492 2.050 10000.000 0.000 0.659
39 117.00 1500.02 246 489 2.050 10000.000 0.000 0.659
40 120.00 1500.02 218 487 2.050 10000.000 0.000 0.659
41 123.00 1500.02 258 493 2.050 10000.000 0.000 0.659
42 126.00 1500.02 272 487 2.050 10000.000 0.000 0.659
43 129.00 1500.02 253 534 2.050 10000.000 0.000 0.659
44 132.00 1500.02 247 453 2.050 10000.000 0.000 0.659
45 135.00 1500.02 226 503 2.050 10000.000 0.000 0.659
46 138.00 1500.02 246 489 2.050 10000.000 0.000 0.659
47 141.00 1500.02 240 472 2.050 10000.000 0.000 0.659
48 144.00 1500.02 249 474 2.050 10000.000 0.000 0.659
49 147.00 1500.02 247 514 2.050 10000.000 0.000 0.659
50 150.00 1500.02 233 537 2.050 10000.000 0.000 0.659
51 153.00 1500.02 220 461 2.050 10000.000 0.000 0.659
52 156.00 1500.02 287 478 2.050 10000.000 0.000 0.659
53 159.00 1500.02 223 494 2.050 10000.000 0.000 0.659
54 162.00 1500.02 233 513 2.050 10000.000 0.000 0.659
55 165.00 1500.02 234 485 2.050 10000.000 0.000 0.659
56 168.00 1500.02 243 550 2.050 10000.000 0.000 0.659
57 171.00 1500.02 234 486 2.050 10000.000 0.000 0.659
58 174.00 1500.02 276 507 2.050 10000.000 0.000 0.659
59 177.00 1500.02 209 460 2.050 10000.000 0.000 0.659
60 180.00 1500.02 235 541 2.050 10000.000 0.000 0.659
61 183.00 1500.02 248 545 2.050 10000.000 0.000 0.659
62 186.00 1500.02 239 534 2.050 10000.000 0.000 0.659
63 189.00 1500.02 261 465 2.050 10000.000 0.000 0.659
64 192.00 1500.02 215 500 2.050 10000.000 0.000 0.659
65 195.00 1500.02 261 462 2.050 10000.000 0.000 0.659
66 198.00 1500.02 244 480 2.050 10000.000 0.000 0.659
67 201.00 1500.02 225 546 2.050 10000.000 0.000 0.659
68 204.00 1500.02 247 514 2.050 10000.000 0.000 0.659
69 207.00 1500.02 269 471 2.050 10000.000 0.000 0.659
70 210.00 1500.02 236 483 2.050 10000.000 0.000 0.659
71 213.00 1500.02 216 443 2.050 10000.000 0.000 0.659
72 216.00 1500.02 241 495 2.050 10000.000 0.000 0.659
73 219.00 1500.02 237 461 2.050 10000.000 0.000 0.659
74 222.00 1500.02 256 471 2.050 10000.000 0.000 0.659
75 225.00 1500.02 237 511 2.050 10000.000 0.000 0.659
76 228.00 1500.02 240 511 2.050 10000.000 0.000 0.659
77 231.00 1500.02 226 486 2.050 10000.000 0.000 0.659
78 234.00 1500.02 234 514 2.050 10000.000 0.000 0.659
79 237.00 1500.02 265 483 2.050 10000.000 0.000 0.659
80 240.00 1500.02 266 485 2.050 10000.000 0.000 0.659
81 243.00 1500.02 221 477 2.050 10000.000 0.000 0.659
82 246.00 1500.02 247 463 2.050 10000.000 0.000 0.659
83 249.00 1500.02 264 464 2.050 10000.000 0.000 0.659
84 252.00 1500.02 265 484 2.050 10000.000 0.000 0.659
85 255.00 1500.02 261 475 2.050 10000.000 0.000 0.659
86 258.00 1500.02 243 492 2.050 10000.000 0.000 0.659
87 261.00 1500.02 246 457 2.050 10000.000 0.000 0.659
88 264.00 1500.02 230 480 2.050 10000.000 0.000 0.659
89 267.00 1500.02 243 438 2.050 10000.000 0.000 0.659
90 270.00 1500.02 231 502 2.050 10000.000 0.000 0.659
91 273.00 1500.02 246 471 2.050 10000.000 0.000 0.659
92 276.00 1500.02 242 535 2.050 10000.000 0.000 0.659
93 279.00 1500.02 232 507 2.050 10000.000 0.000 0.659
94 282.00 1500.02 239 556 2.050 10000.000 0.000 0.659
95 285.00 1500.02 264 488 2.050 10000.000 0.000 0.659
96 288.00 1500.02 243 512 2.050 10000.000 0.000 0.659
97 291.00 1500.02 253 511 2.050 10000.000 0.000 0.659
98 294.00 1500.02 258 505 2.050 10000.000 0.000 0.659
99 297.00 1500.02 236 478 2.050 10000.000 0.000 0.659
100 300.00 1500.02 258 493 2.050 10000.000 0.000 0.659
101 303.00 1500.02 269 468 2.050 10000.000 0.000 0.659
102 306.00 1500.02 264 495 2.050 10000.000 0.000 0.659
103 309.00 1500.02 226 467 2.050 10000.000 0.000 0.659
104 312.00 1500.02 233 481 2.050 10000.000 0.000 0.659
105 315.00 1500.02 241 495 2.050 10000.000 0.000 0.659
106 318.00 1500.02 261 462 2.050 10000.000 0.000 0.659
107 321.00 1500.02 242 464 2.050 10000.000 0.000 0.659
108 324.00 1500.02 249 514 2.050 10000.000 0.000 0.659
109 327.00 1500.02 233 472 2.050 10000.000 0.000 0.659
110 330.00 1500.02 261 477 2.050 10000.000 0.000 0.659
111 333.00 1500.02 235 488 2.050 10000.000 0.000 0.659
112 336.00 1500.02 259 518 2.050 10000.000 0.000 0.659
113 339.00 1500.02 258 477 2.050 10000.000 0.000 0.659
114 342.00 1500.02 244 511 2.050 10000.000 0.000 0.659
115 345.00 1500.02 242 518 2.050 10000.000 0.000 0.659
116 348.00 1500.02 267 464 2.050 10000.000 0.000 0.659
117 351.00 1500.02 230 469 2.050 10000.000 0.000 0.659
118 354.00 1500.02 255 481 2.050 10000.000 0.000 0.659
119 357.00 1500.02 239 452 2.050 10000.000 0.000 0.659
120 360.00 1500.02 242 484 2.050 10000.000 0.000 0.659
121 363.00 1500.02 249 485 2.050 10000.000 0.000 0.659
122 366.00 1500.02 241 443 2.050 10000.000 0.000 0.659
123 369.00 1500.02 221 503 2.050 10000.000 0.000 0.659
124 372.00 1500.02 269 512 2.050 10000.000 0.000 0.659
125 375.00 1500.02 256 491 2.050 10000.000 0.000 0.659
126 378.00 1500.02 247 494 2.050 10000.000 0.000 0.659
127 381.00 1500.02 212 493 2.050 10000.000 0.000 0.659
128 384.00 1500.02 255 515 2.050 10000.000 0.000 0.659
129 387.00 1500.02 228 500 2.050 10000.000 0.000 0.659
130 390.00 1500.02 254 519 2.050 10000.000 0.000 0.659
131 393.00 1500.02 232 487 2.050 10000.000 0.000 0.659
132 396.00 1500.02 213 514 2.050 10000.000 0.000 0.659
133 399.00 1500.02 243 521 2.050 10000.000 0.000 0.659
134 402.00 1500.02 240 507 2.050 10000.000 0.000 0.659
