# BinNR microsec tot-time (s)  O-Beam AUX Ampl(V) f(Hz) phase(deg) chi(pos)
0 0.00 1500.01 183 546 2.050 10000.000 0.000 0.330
1 3.00 1500.01 405 953 2.050 10000.000 0.000 0.330
2 6.00 1500.01 381 983 2.050 10000.000 0.000 0.330
3 9.00 1500.01 369 997 2.050 10000.000 0.000 0.330
4 12.00 1500.01 350 1031 2.050 10000.000 0.000 0.330
5 15.00 1500.01 371 1005 2.050 10000.000 0.000 0.330
6 18.00 1500.01 382 1046 2.050 10000.000 0.000 0.330
7 21.00 1500.01 361 957 2.050 10000.000 0.000 0.330
8 24.00 1500.01 337 1001 2.050 10000.000 0.000 0.330
9 27.00 1500.01 393 1009 2.050 10000.000 0.000 0.330
10 30.00 1500.01 386 1047 2.050 10000.000 0.000 0.330
11 33.00 1500.01 378 1000 2.050 10000.000 0.000 0.330
12 36.00 1500.01 399 1018 2.050 10000.000 0.000 0.330
13 39.00 1500.01 370 1074 2.050 10000.000 0.000 0.330
14 42.00 1500.01 353 1055 2.050 10000.000 0.000 0.330
15 45.00 1500.01 401 1047 2.050 10000.000 0.000 0.330
16 48.00 1500.01 397 1094 2.050 10000.000 0.000 0.330
17 51.00 1500.01 373 1026 2.050 10000.000 0.000 0.330
18 54.00 1500.01 374 1015 2.050 10000.000 0.000 0.330
19 57.00 1500.01 344 913 2.050 10000.000 0.000 0.330
20 60.00 1500.01 335 1053 2.050 10000.000 0.000 0.330
21 63.00 1500.01 321 990 2.050 10000.000 0.000 0.330
22 66.00 1500.01 371 1032 2.050 10000.000 0.000 0.330
23 69.00 1500.01 348 935 2.050 10000.000 0.000 0.330
24 72.00 1500.01 407 1044 2.050 10000.000 0.000 0.330
25 75.00 1500.01 355 1015 2.050 10000.000 0.000 0.330
26 78.00 1500.01 409 1032 2.050 10000.000 0.000 0.330
27 81.00 1500.01 400 937 2.050 10000.000 0.000 0.330
28 84.00 1500.01 413 1109 2.050 10000.000 0.000 0.330
29 87.00 1500.01 360 1031 2.050 10000.000 0.000 0.330
30 90.00 1500.01 380 1002 2.050 10000.000 0.000 0.330
31 93.00 1500.01 392 986 2.050 10000.000 0.000 0.330
32 96.00 1500.01 390 1029 2.050 10000.000 0.000 0.330
33 99.00 1500.01 417 985 2.050 10000.000 0.000 0.330
34 102.00 1500.01 405 1020 2.050 10000.000 0.000 0.330
35 105.00 1500.01 383 1019 2.050 10000.000 0.000 0.330
36 108.00 1500.01 401 1021 2.050 10000.000 0.000 0.330
37 111.00 1500.01 363 943 2.050 10000.000 0.000 0.330
38 114.00 1500.01 384 1010 2.050 10000.000 0.000 0.330
39 117.00 1500.01 346 1054 2.050 10000.000 0.000 0.330
40 120.00 1500.01 384 988 2.050 10000.000 0.000 0.330
41 123.00 1500.01 399 958 2.050 10000.000 0.000 0.330
42 126.00 1500.01 410 1036 2.050 10000.000 0.000 0.330
43 129.00 1500.01 374 989 2.050 10000.000 0.000 0.330
44 132.00 1500.01 382 1056 2.050 10000.000 0.000 0.330
45 135.00 1500.01 369 1018 2.050 10000.000 0.000 0.330
46 138.00 1500.01 398 1014 2.050 10000.000 0.000 0.330
47 141.00 1500.01 394 990 2.050 10000.000 0.000 0.330
48 144.00 1500.01 339 1013 2.050 10000.000 0.000 0.330
49 147.00 1500.01 386 936 2.050 10000.000 0.000 0.330
50 150.00 1500.01 380 1056 2.050 10000.000 0.000 0.330
51 153.00 1500.01 404 1010 2.050 10000.000 0.000 0.330
52 156.00 1500.01 382 951 2.050 10000.000 0.000 0.330
53 159.00 1500.01 376 983 2.050 10000.000 0.000 0.330
54 162.00 1500.01 381 1016 2.050 10000.000 0.000 0.330
55 165.00 1500.01 357 1013 2.050 10000.000 0.000 0.330
56 168.00 1500.01 384 1002 2.050 10000.000 0.000 0.330
57 171.00 1500.01 380 1025 2.050 10000.000 0.000 0.330
58 174.00 1500.01 391 1045 2.050 10000.000 0.000 0.330
59 177.00 1500.01 381 951 2.050 10000.000 0.000 0.330
60 180.00 1500.01 368 1007 2.050 10000.000 0.000 0.330
61 183.00 1500.01 364 985 2.050 10000.000 0.000 0.330
62 186.00 1500.01 384 1056 2.050 10000.000 0.000 0.330
63 189.00 1500.01 394 971 2.050 10000.000 0.000 0.330
64 192.00 1500.01 369 1055 2.050 10000.000 0.000 0.330
65 195.00 1500.01 373 998 2.050 10000.000 0.000 0.330
66 198.00 1500.01 410 1020 2.050 10000.000 0.000 0.330
67 201.00 1500.01 348 1003 2.050 10000.000 0.000 0.330
68 204.00 1500.01 363 996 2.050 10000.000 0.000 0.330
69 207.00 1500.01 388 1102 2.050 10000.000 0.000 0.330
70 210.00 1500.01 385 1024 2.050 10000.000 0.000 0.330
71 213.00 1500.01 383 979 2.050 10000.000 0.000 0.330
72 216.00 1500.01 386 1031 2.050 10000.000 0.000 0.330
73 219.00 1500.01 401 976 2.050 10000.000 0.000 0.330
74 222.00 1500.01 399 1010 2.050 10000.000 0.000 0.330
75 225.00 1500.01 408 1005 2.050 10000.000 0.000 0.330
76 228.00 1500.01 406 988 2.050 10000.000 0.000 0.330
77 231.00 1500.01 369 1005 2.050 10000.000 0.000 0.330
78 234.00 1500.01 369 1067 2.050 10000.000 0.000 0.330
79 237.00 1500.01 354 969 2.050 10000.000 0.000 0.330
80 240.00 1500.01 336 1005 2.050 10000.000 0.000 0.330
81 243.00 1500.01 345 944 2.050 10000.000 0.000 0.330
82 246.00 1500.01 373 1080 2.050 10000.000 0.000 0.330
83 249.00 1500.01 370 1050 2.050 10000.000 0.000 0.330
84 252.00 1500.01 393 1024 2.050 10000.000 0.000 0.330
85 255.00 1500.01 340 985 2.050 10000.000 0.000 0.330
86 258.00 1500.01 348 1006 2.050 10000.000 0.000 0.330
87 261.00 1500.01 408 1018 2.050 10000.000 0.000 0.330
88 264.00 1500.01 395 996 2.050 10000.000 0.000 0.330
89 267.00 1500.01 349 1065 2.050 10000.000 0.000 0.330
90 270.00 1500.01 359 976 2.050 10000.000 0.000 0.330
91 273.00 1500.01 371 1010 2.050 10000.000 0.000 0.330
92 276.00 1500.01 375 986 2.050 10000.000 0.000 0.330
93 279.00 1500.01 368 971 2.050 10000.000 0.000 0.330
94 282.00 1500.01 363 962 2.050 10000.000 0.000 0.330
95 285.00 1500.01 387 1002 2.050 10000.000 0.000 0.330
96 288.00 1500.01 406 1066 2.050 10000.000 0.000 0.330
97 291.00 1500.01 376 1025 2.050 10000.000 0.000 0.330
98 294.00 1500.01 396 1045 2.050 10000.000 0.000 0.330
99 297.00 1500.01 364 1037 2.050 10000.000 0.000 0.330
100 300.00 1500.01 399 986 2.050 10000.000 0.000 0.330
101 303.00 1500.01 350 1030 2.050 10000.000 0.000 0.330
102 306.00 1500.01 396 1031 2.050 10000.000 0.000 0.330
103 309.00 1500.01 370 986 2.050 10000.000 0.000 0.330
104 312.00 1500.01 366 1048 2.050 10000.000 0.000 0.330
105 315.00 1500.01 361 977 2.050 10000.000 0.000 0.330
106 318.00 1500.01 389 1028 2.050 10000.000 0.000 0.330
107 321.00 1500.01 392 996 2.050 10000.000 0.000 0.330
108 324.00 1500.01 368 1042 2.050 10000.000 0.000 0.330
109 327.00 1500.01 358 1070 2.050 10000.000 0.000 0.330
110 330.00 1500.01 365 1028 2.050 10000.000 0.000 0.330
111 333.00 1500.01 371 1015 2.050 10000.000 0.000 0.330
112 336.00 1500.01 377 1039 2.050 10000.000 0.000 0.330
113 339.00 1500.01 370 935 2.050 10000.000 0.000 0.330
114 342.00 1500.01 397 1002 2.050 10000.000 0.000 0.330
115 345.00 1500.01 340 1055 2.050 10000.000 0.000 0.330
116 348.00 1500.01 395 993 2.050 10000.000 0.000 0.330
117 351.00 1500.01 366 964 2.050 10000.000 0.000 0.330
118 354.00 1500.01 368 983 2.050 10000.000 0.000 0.330
119 357.00 1500.01 368 971 2.050 10000.000 0.000 0.330
120 360.00 1500.01 401 1007 2.050 10000.000 0.000 0.330
121 363.00 1500.01 338 948 2.050 10000.000 0.000 0.330
122 366.00 1500.01 368 974 2.050 10000.000 0.000 0.330
123 369.00 1500.01 388 1037 2.050 10000.000 0.000 0.330
124 372.00 1500.01 390 1078 2.050 10000.000 0.000 0.330
125 375.00 1500.01 373 1004 2.050 10000.000 0.000 0.330
126 378.00 1500.01 371 1047 2.050 10000.000 0.000 0.330
127 381.00 1500.01 375 987 2.050 10000.000 0.000 0.330
128 384.00 1500.01 375 980 2.050 10000.000 0.000 0.330
129 387.00 1500.01 354 1067 2.050 10000.000 0.000 0.330
130 390.00 1500.01 359 1046 2.050 10000.000 0.000 0.330
131 393.00 1500.01 331 1057 2.050 10000.000 0.000 0.330
132 396.00 1500.01 349 982 2.050 10000.000 0.000 0.330
133 399.00 1500.01 361 1045 2.050 10000.000 0.000 0.330
134 402.00 1500.01 367 1013 2.050 10000.000 0.000 0.330
