# BinNR microsec tot-time (s)  O-Beam AUX Ampl(V) f(Hz) phase(deg) chi(pos)
0 0.00 1500.01 142 311 2.050 10000.000 0.000 -1.505
1 3.00 1500.01 329 675 2.050 10000.000 0.000 -1.505
2 6.00 1500.01 278 642 2.050 10000.000 0.000 -1.505
3 9.00 1500.01 303 675 2.050 10000.000 0.000 -1.505
4 12.00 1500.01 272 670 2.050 10000.000 0.000 -1.505
5 15.00 1500.01 286 665 2.050 10000.000 0.000 -1.505
6 18.00 1500.01 311 693 2.050 10000.000 0.000 -1.505
7 21.00 1500.01 269 660 2.050 10000.000 0.000 -1.505
8 24.00 1500.01 287 664 2.050 10000.000 0.000 -1.505
9 27.00 1500.01 294 670 2.050 10000.000 0.000 -1.505
10 30.00 1500.01 305 693 2.050 10000.000 0.000 -1.505
11 33.00 1500.01 275 643 2.050 10000.000 0.000 -1.505
12 36.00 1500.01 321 666 2.050 10000.000 0.000 -1.505
13 39.00 1500.01 268 612 2.050 10000.000 0.000 -1.505
14 42.00 1500.01 294 665 2.050 10000.000 0.000 -1.505
15 45.00 1500.01 306 666 2.050 10000.000 0.000 -1.505
16 48.00 1500.01 284 644 2.050 10000.000 0.000 -1.505
17 51.00 1500.01 279 656 2.050 10000.000 0.000 -1.505
18 54.00 1500.01 270 671 2.050 10000.000 0.000 -1.505
19 57.00 1500.01 288 684 2.050 10000.000 0.000 -1.505
20 60.00 1500.01 307 683 2.050 10000.000 0.000 -1.505
21 63.00 1500.01 307 659 2.050 10000.000 0.000 -1.505
22 66.00 1500.01 279 684 2.050 10000.000 0.000 -1.505
23 69.00 1500.01 288 668 2.050 10000.000 0.000 -1.505
24 72.00 1500.01 273 650 2.050 10000.000 0.000 -1.505
25 75.00 1500.01 283 676 2.050 10000.000 0.000 -1.505
26 78.00 1500.01 291 620 2.050 10000.000 0.000 -1.505
27 81.00 1500.01 292 637 2.050 10000.000 0.000 -1.505
28 84.00 1500.01 283 667 2.050 10000.000 0.000 -1.505
29 87.00 1500.01 267 661 2.050 10000.000 0.000 -1.505
30 90.00 1500.01 298 658 2.050 10000.000 0.000 -1.505
31 93.00 1500.01 283 637 2.050 10000.000 0.000 -1.505
32 96.00 1500.01 317 665 2.050 10000.000 0.000 -1.505
33 99.00 1500.01 286 676 2.050 10000.000 0.000 -1.505
34 102.00 1500.01 295 678 2.050 10000.000 0.000 -1.505
35 105.00 1500.01 281 636 2.050 10000.000 0.000 -1.505
36 108.00 1500.01 243 640 2.050 10000.000 0.000 -1.505
37 111.00 1500.01 292 619 2.050 10000.000 0.000 -1.505
38 114.00 1500.01 307 591 2.050 10000.000 0.000 -1.505
39 117.00 1500.01 282 664 2.050 10000.000 0.000 -1.505
40 120.00 1500.01 296 613 2.050 10000.000 0.000 -1.505
41 123.00 1500.01 276 678 2.050 10000.000 0.000 -1.505
42 126.00 1500.01 323 681 2.050 10000.000 0.000 -1.505
43 129.00 1500.01 323 678 2.050 10000.000 0.000 -1.505
44 132.00 1500.01 311 681 2.050 10000.000 0.000 -1.505
45 135.00 1500.01 290 677 2.050 10000.000 0.000 -1.505
46 138.00 1500.01 300 665 2.050 10000.000 0.000 -1.505
47 141.00 1500.01 286 651 2.050 10000.000 0.000 -1.505
48 144.00 1500.01 292 690 2.050 10000.000 0.000 -1.505
49 147.00 1500.01 259 725 2.050 10000.000 0.000 -1.505
50 150.00 1500.01 275 663 2.050 10000.000 0.000 -1.505
51 153.00 1500.01 267 677 2.050 10000.000 0.000 -1.505
52 156.00 1500.01 283 633 2.050 10000.000 0.000 -1.505
53 159.00 1500.01 287 649 2.050 10000.000 0.000 -1.505
54 162.00 1500.01 290 688 2.050 10000.000 0.000 -1.505
55 165.00 1500.01 297 627 2.050 10000.000 0.000 -1.505
56 168.00 1500.01 268 685 2.050 10000.000 0.000 -1.505
57 171.00 1500.01 269 623 2.050 10000.000 0.000 -1.505
58 174.00 1500.01 251 672 2.050 10000.000 0.000 -1.505
59 177.00 1500.01 276 672 2.050 10000.000 0.000 -1.505
60 180.00 1500.01 269 641 2.050 10000.000 0.000 -1.505
61 183.00 1500.01 296 698 2.050 10000.000 0.000 -1.505
62 186.00 1500.01 270 652 2.050 10000.000 0.000 -1.505
63 189.00 1500.01 277 655 2.050 10000.000 0.000 -1.505
64 192.00 1500.01 298 683 2.050 10000.000 0.000 -1.505
65 195.00 1500.01 284 641 2.050 10000.000 0.000 -1.505
66 198.00 1500.01 314 688 2.050 10000.000 0.000 -1.505
67 201.00 1500.01 262 636 2.050 10000.000 0.000 -1.505
68 204.00 1500.01 290 660 2.050 10000.000 0.000 -1.505
69 207.00 1500.01 306 639 2.050 10000.000 0.000 -1.505
70 210.00 1500.01 264 649 2.050 10000.000 0.000 -1.505
71 213.00 1500.01 289 630 2.050 10000.000 0.000 -1.505
72 216.00 1500.01 304 741 2.050 10000.000 0.000 -1.505
73 219.00 1500.01 272 663 2.050 10000.000 0.000 -1.505
74 222.00 1500.01 282 652 2.050 10000.000 0.000 -1.505
75 225.00 1500.01 267 603 2.050 10000.000 0.000 -1.505
76 228.00 1500.01 276 681 2.050 10000.000 0.000 -1.505
77 231.00 1500.01 311 661 2.050 10000.000 0.000 -1.505
78 234.00 1500.01 302 666 2.050 10000.000 0.000 -1.505
79 237.00 1500.01 284 623 2.050 10000.000 0.000 -1.505
80 240.00 1500.01 284 662 2.050 10000.000 0.000 -1.505
81 243.00 1500.01 277 627 2.050 10000.000 0.000 -1.505
82 246.00 1500.01 298 637 2.050 10000.000 0.000 -1.505
83 249.00 1500.01 324 612 2.050 10000.000 0.000 -1.505
84 252.00 1500.01 280 646 2.050 10000.000 0.000 -1.505
85 255.00 1500.01 281 630 2.050 10000.000 0.000 -1.505
86 258.00 1500.01 301 596 2.050 10000.000 0.000 -1.505
87 261.00 1500.01 283 685 2.050 10000.000 0.000 -1.505
88 264.00 1500.01 286 637 2.050 10000.000 0.000 -1.505
89 267.00 1500.01 313 631 2.050 10000.000 0.000 -1.505
90 270.00 1500.01 311 643 2.050 10000.000 0.000 -1.505
91 273.00 1500.01 269 641 2.050 10000.000 0.000 -1.505
92 276.00 1500.01 282 653 2.050 10000.000 0.000 -1.505
93 279.00 1500.01 293 624 2.050 10000.000 0.000 -1.505
94 282.00 1500.01 292 629 2.050 10000.000 0.000 -1.505
95 285.00 1500.01 281 656 2.050 10000.000 0.000 -1.505
96 288.00 1500.01 284 684 2.050 10000.000 0.000 -1.505
97 291.00 1500.01 328 650 2.050 10000.000 0.000 -1.505
98 294.00 1500.01 273 651 2.050 10000.000 0.000 -1.505
99 297.00 1500.01 322 691 2.050 10000.000 0.000 -1.505
100 300.00 1500.01 281 638 2.050 10000.000 0.000 -1.505
101 303.00 1500.01 315 650 2.050 10000.000 0.000 -1.505
102 306.00 1500.01 312 666 2.050 10000.000 0.000 -1.505
103 309.00 1500.01 297 636 2.050 10000.000 0.000 -1.505
104 312.00 1500.01 285 689 2.050 10000.000 0.000 -1.505
105 315.00 1500.01 298 634 2.050 10000.000 0.000 -1.505
106 318.00 1500.01 297 679 2.050 10000.000 0.000 -1.505
107 321.00 1500.01 275 659 2.050 10000.000 0.000 -1.505
108 324.00 1500.01 301 695 2.050 10000.000 0.000 -1.505
109 327.00 1500.01 275 638 2.050 10000.000 0.000 -1.505
110 330.00 1500.01 281 710 2.050 10000.000 0.000 -1.505
111 333.00 1500.01 282 712 2.050 10000.000 0.000 -1.505
112 336.00 1500.01 278 642 2.050 10000.000 0.000 -1.505
113 339.00 1500.01 311 639 2.050 10000.000 0.000 -1.505
114 342.00 1500.01 281 677 2.050 10000.000 0.000 -1.505
115 345.00 1500.01 290 691 2.050 10000.000 0.000 -1.505
116 348.00 1500.01 293 694 2.050 10000.000 0.000 -1.505
117 351.00 1500.01 261 646 2.050 10000.000 0.000 -1.505
118 354.00 1500.01 303 658 2.050 10000.000 0.000 -1.505
119 357.00 1500.01 294 654 2.050 10000.000 0.000 -1.505
120 360.00 1500.01 278 674 2.050 10000.000 0.000 -1.505
121 363.00 1500.01 304 678 2.050 10000.000 0.000 -1.505
122 366.00 1500.01 291 689 2.050 10000.000 0.000 -1.505
123 369.00 1500.01 293 608 2.050 10000.000 0.000 -1.505
124 372.00 1500.01 286 657 2.050 10000.000 0.000 -1.505
125 375.00 1500.01 283 651 2.050 10000.000 0.000 -1.505
126 378.00 1500.01 287 697 2.050 10000.000 0.000 -1.505
127 381.00 1500.01 272 646 2.050 10000.000 0.000 -1.505
128 384.00 1500.01 302 668 2.050 10000.000 0.000 -1.505
129 387.00 1500.01 276 645 2.050 10000.000 0.000 -1.505
130 390.00 1500.01 324 691 2.050 10000.000 0.000 -1.505
131 393.00 1500.01 328 669 2.050 10000.000 0.000 -1.505
132 396.00 1500.01 281 667 2.050 10000.000 0.000 -1.505
133 399.00 1500.01 297 649 2.050 10000.000 0.000 -1.505
134 402.00 1500.01 289 653 2.050 10000.000 0.000 -1.505
