# BinNR microsec tot-time (s)  O-Beam AUX Ampl(V) f(Hz) phase(deg) chi(pos)
0 0.00 1500.01 110 183 2.050 10000.000 0.000 -1.340
1 3.00 1500.01 197 351 2.050 10000.000 0.000 -1.340
2 6.00 1500.01 200 368 2.050 10000.000 0.000 -1.340
3 9.00 1500.01 205 381 2.050 10000.000 0.000 -1.340
4 12.00 1500.01 218 353 2.050 10000.000 0.000 -1.340
5 15.00 1500.01 221 350 2.050 10000.000 0.000 -1.340
6 18.00 1500.01 216 404 2.050 10000.000 0.000 -1.340
7 21.00 1500.01 229 377 2.050 10000.000 0.000 -1.340
8 24.00 1500.01 230 383 2.050 10000.000 0.000 -1.340
9 27.00 1500.01 210 375 2.050 10000.000 0.000 -1.340
10 30.00 1500.01 234 341 2.050 10000.000 0.000 -1.340
11 33.00 1500.01 214 359 2.050 10000.000 0.000 -1.340
12 36.00 1500.01 222 403 2.050 10000.000 0.000 -1.340
13 39.00 1500.01 210 372 2.050 10000.000 0.000 -1.340
14 42.00 1500.01 205 367 2.050 10000.000 0.000 -1.340
15 45.00 1500.01 221 372 2.050 10000.000 0.000 -1.340
16 48.00 1500.01 234 388 2.050 10000.000 0.000 -1.340
17 51.00 1500.01 235 360 2.050 10000.000 0.000 -1.340
18 54.00 1500.01 210 343 2.050 10000.000 0.000 -1.340
19 57.00 1500.01 188 410 2.050 10000.000 0.000 -1.340
20 60.00 1500.01 229 353 2.050 10000.000 0.000 -1.340
21 63.00 1500.01 237 386 2.050 10000.000 0.000 -1.340
22 66.00 1500.01 220 367 2.050 10000.000 0.000 -1.340
23 69.00 1500.01 179 347 2.050 10000.000 0.000 -1.340
24 72.00 1500.01 224 370 2.050 10000.000 0.000 -1.340
25 75.00 1500.01 200 358 2.050 10000.000 0.000 -1.340
26 78.00 1500.01 222 364 2.050 10000.000 0.000 -1.340
27 81.00 1500.01 212 348 2.050 10000.000 0.000 -1.340
28 84.00 1500.01 250 364 2.050 10000.000 0.000 -1.340
29 87.00 1500.01 179 409 2.050 10000.000 0.000 -1.340
30 90.00 1500.01 227 352 2.050 10000.000 0.000 -1.340
31 93.00 1500.01 218 341 2.050 10000.000 0.000 -1.340
32 96.00 1500.01 188 376 2.050 10000.000 0.000 -1.340
33 99.00 1500.01 236 336 2.050 10000.000 0.000 -1.340
34 102.00 1500.01 198 373 2.050 10000.000 0.000 -1.340
35 105.00 1500.01 210 350 2.050 10000.000 0.000 -1.340
36 108.00 1500.01 203 382 2.050 10000.000 0.000 -1.340
37 111.00 1500.01 210 360 2.050 10000.000 0.000 -1.340
38 114.00 1500.01 215 361 2.050 10000.000 0.000 -1.340
39 117.00 1500.01 196 368 2.050 10000.000 0.000 -1.340
40 120.00 1500.01 204 345 2.050 10000.000 0.000 -1.340
41 123.00 1500.01 209 337 2.050 10000.000 0.000 -1.340
42 126.00 1500.01 196 377 2.050 10000.000 0.000 -1.340
43 129.00 1500.01 232 386 2.050 10000.000 0.000 -1.340
44 132.00 1500.01 221 398 2.050 10000.000 0.000 -1.340
45 135.00 1500.01 212 358 2.050 10000.000 0.000 -1.340
46 138.00 1500.01 201 359 2.050 10000.000 0.000 -1.340
47 141.00 1500.01 202 397 2.050 10000.000 0.000 -1.340
48 144.00 1500.01 233 371 2.050 10000.000 0.000 -1.340
49 147.00 1500.01 203 385 2.050 10000.000 0.000 -1.340
50 150.00 1500.01 224 355 2.050 10000.000 0.000 -1.340
51 153.00 1500.01 224 355 2.050 10000.000 0.000 -1.340
52 156.00 1500.01 207 352 2.050 10000.000 0.000 -1.340
53 159.00 1500.01 218 361 2.050 10000.000 0.000 -1.340
54 162.00 1500.01 235 381 2.050 10000.000 0.000 -1.340
55 165.00 1500.01 194 332 2.050 10000.000 0.000 -1.340
56 168.00 1500.01 221 369 2.050 10000.000 0.000 -1.340
57 171.00 1500.01 192 370 2.050 10000.000 0.000 -1.340
58 174.00 1500.01 195 372 2.050 10000.000 0.000 -1.340
59 177.00 1500.01 215 349 2.050 10000.000 0.000 -1.340
60 180.00 1500.01 224 380 2.050 10000.000 0.000 -1.340
61 183.00 1500.01 209 363 2.050 10000.000 0.000 -1.340
62 186.00 1500.01 198 383 2.050 10000.000 0.000 -1.340
63 189.00 1500.01 232 368 2.050 10000.000 0.000 -1.340
64 192.00 1500.01 203 371 2.050 10000.000 0.000 -1.340
65 195.00 1500.01 219 348 2.050 10000.000 0.000 -1.340
66 198.00 1500.01 228 341 2.050 10000.000 0.000 -1.340
67 201.00 1500.01 231 342 2.050 10000.000 0.000 -1.340
68 204.00 1500.01 206 377 2.050 10000.000 0.000 -1.340
69 207.00 1500.01 189 355 2.050 10000.000 0.000 -1.340
70 210.00 1500.01 244 375 2.050 10000.000 0.000 -1.340
71 213.00 1500.01 192 354 2.050 10000.000 0.000 -1.340
72 216.00 1500.01 200 351 2.050 10000.000 0.000 -1.340
73 219.00 1500.01 192 363 2.050 10000.000 0.000 -1.340
74 222.00 1500.01 225 369 2.050 10000.000 0.000 -1.340
75 225.00 1500.01 235 371 2.050 10000.000 0.000 -1.340
76 228.00 1500.01 217 350 2.050 10000.000 0.000 -1.340
77 231.00 1500.01 227 368 2.050 10000.000 0.000 -1.340
78 234.00 1500.01 218 324 2.050 10000.000 0.000 -1.340
79 237.00 1500.01 208 376 2.050 10000.000 0.000 -1.340
80 240.00 1500.01 223 346 2.050 10000.000 0.000 -1.340
81 243.00 1500.01 232 346 2.050 10000.000 0.000 -1.340
82 246.00 1500.01 208 362 2.050 10000.000 0.000 -1.340
83 249.00 1500.01 214 360 2.050 10000.000 0.000 -1.340
84 252.00 1500.01 201 380 2.050 10000.000 0.000 -1.340
85 255.00 1500.01 191 362 2.050 10000.000 0.000 -1.340
86 258.00 1500.01 235 366 2.050 10000.000 0.000 -1.340
87 261.00 1500.01 201 388 2.050 10000.000 0.000 -1.340
88 264.00 1500.01 181 317 2.050 10000.000 0.000 -1.340
89 267.00 1500.01 215 341 2.050 10000.000 0.000 -1.340
90 270.00 1500.01 218 372 2.050 10000.000 0.000 -1.340
91 273.00 1500.01 199 378 2.050 10000.000 0.000 -1.340
92 276.00 1500.01 230 361 2.050 10000.000 0.000 -1.340
93 279.00 1500.01 243 355 2.050 10000.000 0.000 -1.340
94 282.00 1500.01 218 376 2.050 10000.000 0.000 -1.340
95 285.00 1500.01 217 370 2.050 10000.000 0.000 -1.340
96 288.00 1500.01 247 390 2.050 10000.000 0.000 -1.340
97 291.00 1500.01 216 363 2.050 10000.000 0.000 -1.340
98 294.00 1500.01 214 389 2.050 10000.000 0.000 -1.340
99 297.00 1500.01 187 354 2.050 10000.000 0.000 -1.340
100 300.00 1500.01 202 366 2.050 10000.000 0.000 -1.340
101 303.00 1500.01 235 343 2.050 10000.000 0.000 -1.340
102 306.00 1500.01 225 332 2.050 10000.000 0.000 -1.340
103 309.00 1500.01 197 358 2.050 10000.000 0.000 -1.340
104 312.00 1500.01 218 378 2.050 10000.000 0.000 -1.340
105 315.00 1500.01 212 350 2.050 10000.000 0.000 -1.340
106 318.00 1500.01 196 346 2.050 10000.000 0.000 -1.340
107 321.00 1500.01 238 359 2.050 10000.000 0.000 -1.340
108 324.00 1500.01 220 347 2.050 10000.000 0.000 -1.340
109 327.00 1500.01 221 354 2.050 10000.000 0.000 -1.340
110 330.00 1500.01 213 380 2.050 10000.000 0.000 -1.340
111 333.00 1500.01 226 351 2.050 10000.000 0.000 -1.340
112 336.00 1500.01 232 341 2.050 10000.000 0.000 -1.340
113 339.00 1500.01 217 325 2.050 10000.000 0.000 -1.340
114 342.00 1500.01 241 388 2.050 10000.000 0.000 -1.340
115 345.00 1500.01 211 383 2.050 10000.000 0.000 -1.340
116 348.00 1500.01 226 378 2.050 10000.000 0.000 -1.340
117 351.00 1500.01 211 323 2.050 10000.000 0.000 -1.340
118 354.00 1500.01 231 363 2.050 10000.000 0.000 -1.340
119 357.00 1500.01 209 389 2.050 10000.000 0.000 -1.340
120 360.00 1500.01 214 367 2.050 10000.000 0.000 -1.340
121 363.00 1500.01 201 380 2.050 10000.000 0.000 -1.340
122 366.00 1500.01 210 368 2.050 10000.000 0.000 -1.340
123 369.00 1500.01 238 361 2.050 10000.000 0.000 -1.340
124 372.00 1500.01 216 370 2.050 10000.000 0.000 -1.340
125 375.00 1500.01 197 370 2.050 10000.000 0.000 -1.340
126 378.00 1500.01 222 369 2.050 10000.000 0.000 -1.340
127 381.00 1500.01 224 330 2.050 10000.000 0.000 -1.340
128 384.00 1500.01 201 353 2.050 10000.000 0.000 -1.340
129 387.00 1500.01 221 330 2.050 10000.000 0.000 -1.340
130 390.00 1500.01 229 402 2.050 10000.000 0.000 -1.340
131 393.00 1500.01 225 386 2.050 10000.000 0.000 -1.340
132 396.00 1500.01 205 353 2.050 10000.000 0.000 -1.340
133 399.00 1500.01 223 399 2.050 10000.000 0.000 -1.340
134 402.00 1500.01 201 345 2.050 10000.000 0.000 -1.340
