# BinNR microsec tot-time (s)  O-Beam AUX Ampl(V) f(Hz) phase(deg) chi(pos)
0 0.00 1500.00 142 413 2.050 10000.000 0.000 -0.505
1 3.00 1500.00 288 836 2.050 10000.000 0.000 -0.505
2 6.00 1500.00 283 838 2.050 10000.000 0.000 -0.505
3 9.00 1500.00 299 856 2.050 10000.000 0.000 -0.505
4 12.00 1500.00 275 801 2.050 10000.000 0.000 -0.505
5 15.00 1500.00 290 822 2.050 10000.000 0.000 -0.505
6 18.00 1500.00 298 871 2.050 10000.000 0.000 -0.505
7 21.00 1500.00 288 820 2.050 10000.000 0.000 -0.505
8 24.00 1500.00 269 826 2.050 10000.000 0.000 -0.505
9 27.00 1500.00 285 803 2.050 10000.000 0.000 -0.505
10 30.00 1500.00 285 814 2.050 10000.000 0.000 -0.505
11 33.00 1500.00 301 799 2.050 10000.000 0.000 -0.505
12 36.00 1500.00 324 811 2.050 10000.000 0.000 -0.505
13 39.00 1500.00 270 837 2.050 10000.000 0.000 -0.505
14 42.00 1500.00 282 820 2.050 10000.000 0.000 -0.505
15 45.00 1500.00 284 809 2.050 10000.000 0.000 -0.505
16 48.00 1500.00 301 863 2.050 10000.000 0.000 -0.505
17 51.00 1500.00 296 802 2.050 10000.000 0.000 -0.505
18 54.00 1500.00 308 805 2.050 10000.000 0.000 -0.505
19 57.00 1500.00 294 799 2.050 10000.000 0.000 -0.505
20 60.00 1500.00 280 864 2.050 10000.000 0.000 -0.505
21 63.00 1500.00 289 858 2.050 10000.000 0.000 -0.505
22 66.00 1500.00 266 840 2.050 10000.000 0.000 -0.505
23 69.00 1500.00 284 846 2.050 10000.000 0.000 -0.505
24 72.00 1500.00 306 846 2.050 10000.000 0.000 -0.505
25 75.00 1500.00 289 822 2.050 10000.000 0.000 -0.505
26 78.00 1500.00 289 859 2.050 10000.000 0.000 -0.505
27 81.00 1500.00 278 810 2.050 10000.000 0.000 -0.505
28 84.00 1500.00 305 867 2.050 10000.000 0.000 -0.505
29 87.00 1500.00 245 773 2.050 10000.000 0.000 -0.505
30 90.00 1500.00 305 874 2.050 10000.000 0.000 -0.505
31 93.00 1500.00 285 786 2.050 10000.000 0.000 -0.505
32 96.00 1500.00 288 787 2.050 10000.000 0.000 -0.505
33 99.00 1500.00 260 741 2.050 10000.000 0.000 -0.505
34 102.00 1500.00 289 817 2.050 10000.000 0.000 -0.505
35 105.00 1500.00 307 810 2.050 10000.000 0.000 -0.505
36 108.00 1500.00 264 772 2.050 10000.000 0.000 -0.505
37 111.00 1500.00 282 759 2.050 10000.000 0.000 -0.505
38 114.00 1500.00 278 829 2.050 10000.000 0.000 -0.505
39 117.00 1500.00 247 831 2.050 10000.000 0.000 -0.505
40 120.00 1500.00 269 794 2.050 10000.000 0.000 -0.505
41 123.00 1500.00 267 741 2.050 10000.000 0.000 -0.505
42 126.00 1500.00 267 816 2.050 10000.000 0.000 -0.505
43 129.00 1500.00 299 827 2.050 10000.000 0.000 -0.505
44 132.00 1500.00 304 808 2.050 10000.000 0.000 -0.505
45 135.00 1500.00 283 821 2.050 10000.000 0.000 -0.505
46 138.00 1500.00 257 819 2.050 10000.000 0.000 -0.505
47 141.00 1500.00 295 785 2.050 10000.000 0.000 -0.505
48 144.00 1500.00 286 847 2.050 10000.000 0.000 -0.505
49 147.00 1500.00 278 810 2.050 10000.000 0.000 -0.505
50 150.00 1500.00 288 835 2.050 10000.000 0.000 -0.505
51 153.00 1500.00 302 833 2.050 10000.000 0.000 -0.505
52 156.00 1500.00 295 826 2.050 10000.000 0.000 -0.505
53 159.00 1500.00 249 829 2.050 10000.000 0.000 -0.505
54 162.00 1500.00 287 832 2.050 10000.000 0.000 -0.505
55 165.00 1500.00 268 825 2.050 10000.000 0.000 -0.505
56 168.00 1500.00 310 875 2.050 10000.000 0.000 -0.505
57 171.00 1500.00 305 849 2.050 10000.000 0.000 -0.505
58 174.00 1500.00 332 864 2.050 10000.000 0.000 -0.505
59 177.00 1500.00 268 775 2.050 10000.000 0.000 -0.505
60 180.00 1500.00 288 814 2.050 10000.000 0.000 -0.505
61 183.00 1500.00 291 829 2.050 10000.000 0.000 -0.505
62 186.00 1500.00 281 825 2.050 10000.000 0.000 -0.505
63 189.00 1500.00 275 840 2.050 10000.000 0.000 -0.505
64 192.00 1500.00 281 806 2.050 10000.000 0.000 -0.505
65 195.00 1500.00 266 825 2.050 10000.000 0.000 -0.505
66 198.00 1500.00 289 832 2.050 10000.000 0.000 -0.505
67 201.00 1500.00 248 855 2.050 10000.000 0.000 -0.505
68 204.00 1500.00 317 838 2.050 10000.000 0.000 -0.505
69 207.00 1500.00 294 809 2.050 10000.000 0.000 -0.505
70 210.00 1500.00 295 795 2.050 10000.000 0.000 -0.505
71 213.00 1500.00 302 837 2.050 10000.000 0.000 -0.505
72 216.00 1500.00 288 792 2.050 10000.000 0.000 -0.505
73 219.00 1500.00 253 813 2.050 10000.000 0.000 -0.505
74 222.00 1500.00 258 822 2.050 10000.000 0.000 -0.505
75 225.00 1500.00 304 840 2.050 10000.000 0.000 -0.505
76 228.00 1500.00 294 859 2.050 10000.000 0.000 -0.505
77 231.00 1500.00 285 885 2.050 10000.000 0.000 -0.505
78 234.00 1500.00 287 812 2.050 10000.000 0.000 -0.505
79 237.00 1500.00 295 856 2.050 10000.000 0.000 -0.505
80 240.00 1500.00 272 827 2.050 10000.000 0.000 -0.505
81 243.00 1500.00 307 816 2.050 10000.000 0.000 -0.505
82 246.00 1500.00 302 797 2.050 10000.000 0.000 -0.505
83 249.00 1500.00 280 820 2.050 10000.000 0.000 -0.505
84 252.00 1500.00 274 817 2.050 10000.000 0.000 -0.505
85 255.00 1500.00 259 818 2.050 10000.000 0.000 -0.505
86 258.00 1500.00 296 834 2.050 10000.000 0.000 -0.505
87 261.00 1500.00 269 797 2.050 10000.000 0.000 -0.505
88 264.00 1500.00 300 769 2.050 10000.000 0.000 -0.505
89 267.00 1500.00 297 839 2.050 10000.000 0.000 -0.505
90 270.00 1500.00 286 818 2.050 10000.000 0.000 -0.505
91 273.00 1500.00 281 811 2.050 10000.000 0.000 -0.505
92 276.00 1500.00 297 822 2.050 10000.000 0.000 -0.505
93 279.00 1500.00 277 757 2.050 10000.000 0.000 -0.505
94 282.00 1500.00 259 800 2.050 10000.000 0.000 -0.505
95 285.00 1500.00 294 808 2.050 10000.000 0.000 -0.505
96 288.00 1500.00 272 879 2.050 10000.000 0.000 -0.505
97 291.00 1500.00 289 849 2.050 10000.000 0.000 -0.505
98 294.00 1500.00 304 851 2.050 10000.000 0.000 -0.505
99 297.00 1500.00 265 865 2.050 10000.000 0.000 -0.505
100 300.00 1500.00 309 836 2.050 10000.000 0.000 -0.505
101 303.00 1500.00 282 825 2.050 10000.000 0.000 -0.505
102 306.00 1500.00 275 821 2.050 10000.000 0.000 -0.505
103 309.00 1500.00 282 815 2.050 10000.000 0.000 -0.505
104 312.00 1500.00 262 860 2.050 10000.000 0.000 -0.505
105 315.00 1500.00 297 813 2.050 10000.000 0.000 -0.505
106 318.00 1500.00 273 843 2.050 10000.000 0.000 -0.505
107 321.00 1500.00 269 845 2.050 10000.000 0.000 -0.505
108 324.00 1500.00 283 832 2.050 10000.000 0.000 -0.505
109 327.00 1500.00 270 817 2.050 10000.000 0.000 -0.505
110 330.00 1500.00 258 803 2.050 10000.000 0.000 -0.505
111 333.00 1500.00 287 776 2.050 10000.000 0.000 -0.505
112 336.00 1500.00 279 836 2.050 10000.000 0.000 -0.505
113 339.00 1500.00 267 823 2.050 10000.000 0.000 -0.505
114 342.00 1500.00 309 845 2.050 10000.000 0.000 -0.505
115 345.00 1500.00 301 815 2.050 10000.000 0.000 -0.505
116 348.00 1500.00 289 830 2.050 10000.000 0.000 -0.505
117 351.00 1500.00 304 799 2.050 10000.000 0.000 -0.505
118 354.00 1500.00 334 848 2.050 10000.000 0.000 -0.505
119 357.00 1500.00 297 829 2.050 10000.000 0.000 -0.505
120 360.00 1500.00 266 799 2.050 10000.000 0.000 -0.505
121 363.00 1500.00 290 796 2.050 10000.000 0.000 -0.505
122 366.00 1500.00 315 837 2.050 10000.000 0.000 -0.505
123 369.00 1500.00 283 781 2.050 10000.000 0.000 -0.505
124 372.00 1500.00 300 814 2.050 10000.000 0.000 -0.505
125 375.00 1500.00 299 859 2.050 10000.000 0.000 -0.505
126 378.00 1500.00 296 790 2.050 10000.000 0.000 -0.505
127 381.00 1500.00 319 818 2.050 10000.000 0.000 -0.505
128 384.00 1500.00 285 800 2.050 10000.000 0.000 -0.505
129 387.00 1500.00 254 795 2.050 10000.000 0.000 -0.505
130 390.00 1500.00 265 828 2.050 10000.000 0.000 -0.505
131 393.00 1500.00 280 802 2.050 10000.000 0.000 -0.505
132 396.00 1500.00 288 847 2.050 10000.000 0.000 -0.505
133 399.00 1500.00 279 846 2.050 10000.000 0.000 -0.505
134 402.00 1500.00 289 795 2.050 10000.000 0.000 -0.505
