# BinNR microsec tot-time (s)  O-Beam AUX Ampl(V) f(Hz) phase(deg) chi(pos)
0 0.00 1500.00 87 181 2.050 10000.000 0.000 -0.846
1 3.00 1500.00 177 319 2.050 10000.000 0.000 -0.846
2 6.00 1500.00 163 356 2.050 10000.000 0.000 -0.846
3 9.00 1500.00 178 340 2.050 10000.000 0.000 -0.846
4 12.00 1500.00 197 327 2.050 10000.000 0.000 -0.846
5 15.00 1500.00 190 310 2.050 10000.000 0.000 -0.846
6 18.00 1500.00 178 351 2.050 10000.000 0.000 -0.846
7 21.00 1500.00 186 341 2.050 10000.000 0.000 -0.846
8 24.00 1500.00 168 350 2.050 10000.000 0.000 -0.846
9 27.00 1500.00 174 304 2.050 10000.000 0.000 -0.846
10 30.00 1500.00 186 337 2.050 10000.000 0.000 -0.846
11 33.00 1500.00 181 320 2.050 10000.000 0.000 -0.846
12 36.00 1500.00 160 338 2.050 10000.000 0.000 -0.846
13 39.00 1500.00 166 319 2.050 10000.000 0.000 -0.846
14 42.00 1500.00 182 340 2.050 10000.000 0.000 -0.846
15 45.00 1500.00 181 320 2.050 10000.000 0.000 -0.846
16 48.00 1500.00 169 361 2.050 10000.000 0.000 -0.846
17 51.00 1500.00 161 341 2.050 10000.000 0.000 -0.846
18 54.00 1500.00 181 324 2.050 10000.000 0.000 -0.846
19 57.00 1500.00 187 328 2.050 10000.000 0.000 -0.846
20 60.00 1500.00 176 358 2.050 10000.000 0.000 -0.846
21 63.00 1500.00 188 351 2.050 10000.000 0.000 -0.846
22 66.00 1500.00 185 354 2.050 10000.000 0.000 -0.846
23 69.00 1500.00 195 338 2.050 10000.000 0.000 -0.846
24 72.00 1500.00 157 336 2.050 10000.000 0.000 -0.846
25 75.00 1500.00 171 317 2.050 10000.000 0.000 -0.846
26 78.00 1500.00 167 325 2.050 10000.000 0.000 -0.846
27 81.00 1500.00 200 333 2.050 10000.000 0.000 -0.846
28 84.00 1500.00 178 326 2.050 10000.000 0.000 -0.846
29 87.00 1500.00 194 316 2.050 10000.000 0.000 -0.846
30 90.00 1500.00 194 335 2.050 10000.000 0.000 -0.846
31 93.00 1500.00 183 330 2.050 10000.000 0.000 -0.846
32 96.00 1500.00 174 316 2.050 10000.000 0.000 -0.846
33 99.00 1500.00 187 319 2.050 10000.000 0.000 -0.846
34 102.00 1500.00 171 366 2.050 10000.000 0.000 -0.846
35 105.00 1500.00 186 326 2.050 10000.000 0.000 -0.846
36 108.00 1500.00 191 337 2.050 10000.000 0.000 -0.846
37 111.00 1500.00 197 378 2.050 10000.000 0.000 -0.846
38 114.00 1500.00 166 328 2.050 10000.000 0.000 -0.846
39 117.00 1500.00 168 342 2.050 10000.000 0.000 -0.846
40 120.00 1500.00 180 358 2.050 10000.000 0.000 -0.846
41 123.00 1500.00 189 346 2.050 10000.000 0.000 -0.846
42 126.00 1500.00 178 346 2.050 10000.000 0.000 -0.846
43 129.00 1500.00 180 353 2.050 10000.000 0.000 -0.846
44 132.00 1500.00 181 312 2.050 10000.000 0.000 -0.846
45 135.00 1500.00 178 312 2.050 10000.000 0.000 -0.846
46 138.00 1500.00 156 362 2.050 10000.000 0.000 -0.846
47 141.00 1500.00 152 321 2.050 10000.000 0.000 -0.846
48 144.00 1500.00 175 343 2.050 10000.000 0.000 -0.846
49 147.00 1500.00 169 356 2.050 10000.000 0.000 -0.846
50 150.00 1500.00 176 304 2.050 10000.000 0.000 -0.846
51 153.00 1500.00 177 318 2.050 10000.000 0.000 -0.846
52 156.00 1500.00 191 323 2.050 10000.000 0.000 -0.846
53 159.00 1500.00 174 307 2.050 10000.000 0.000 -0.846
54 162.00 1500.00 161 312 2.050 10000.000 0.000 -0.846
55 165.00 1500.00 143 320 2.050 10000.000 0.000 -0.846
56 168.00 1500.00 195 329 2.050 10000.000 0.000 -0.846
57 171.00 1500.00 159 331 2.050 10000.000 0.000 -0.846
58 174.00 1500.00 203 353 2.050 10000.000 0.000 -0.846
59 177.00 1500.00 182 346 2.050 10000.000 0.000 -0.846
60 180.00 1500.00 177 352 2.050 10000.000 0.000 -0.846
61 183.00 1500.00 168 347 2.050 10000.000 0.000 -0.846
62 186.00 1500.00 166 345 2.050 10000.000 0.000 -0.846
63 189.00 1500.00 175 348 2.050 10000.000 0.000 -0.846
64 192.00 1500.00 187 336 2.050 10000.000 0.000 -0.846
65 195.00 1500.00 178 337 2.050 10000.000 0.000 -0.846
66 198.00 1500.00 195 344 2.050 10000.000 0.000 -0.846
67 201.00 1500.00 196 326 2.050 10000.000 0.000 -0.846
68 204.00 1500.00 182 325 2.050 10000.000 0.000 -0.846
69 207.00 1500.00 171 322 2.050 10000.000 0.000 -0.846
70 210.00 1500.00 160 326 2.050 10000.000 0.000 -0.846
71 213.00 1500.00 171 318 2.050 10000.000 0.000 -0.846
72 216.00 1500.00 155 349 2.050 10000.000 0.000 -0.846
73 219.00 1500.00 180 355 2.050 10000.000 0.000 -0.846
74 222.00 1500.00 181 336 2.050 10000.000 0.000 -0.846
75 225.00 1500.00 167 327 2.050 10000.000 0.000 -0.846
76 228.00 1500.00 172 326 2.050 10000.000 0.000 -0.846
77 231.00 1500.00 175 325 2.050 10000.000 0.000 -0.846
78 234.00 1500.00 167 350 2.050 10000.000 0.000 -0.846
79 237.00 1500.00 182 348 2.050 10000.000 0.000 -0.846
80 240.00 1500.00 186 326 2.050 10000.000 0.000 -0.846
81 243.00 1500.00 156 305 2.050 10000.000 0.000 -0.846
82 246.00 1500.00 187 376 2.050 10000.000 0.000 -0.846
83 249.00 1500.00 165 334 2.050 10000.000 0.000 -0.846
84 252.00 1500.00 169 336 2.050 10000.000 0.000 -0.846
85 255.00 1500.00 164 299 2.050 10000.000 0.000 -0.846
86 258.00 1500.00 179 350 2.050 10000.000 0.000 -0.846
87 261.00 1500.00 160 332 2.050 10000.000 0.000 -0.846
88 264.00 1500.00 169 337 2.050 10000.000 0.000 -0.846
89 267.00 1500.00 171 370 2.050 10000.000 0.000 -0.846
90 270.00 1500.00 168 343 2.050 10000.000 0.000 -0.846
91 273.00 1500.00 167 288 2.050 10000.000 0.000 -0.846
92 276.00 1500.00 178 338 2.050 10000.000 0.000 -0.846
93 279.00 1500.00 166 359 2.050 10000.000 0.000 -0.846
94 282.00 1500.00 177 349 2.050 10000.000 0.000 -0.846
95 285.00 1500.00 168 343 2.050 10000.000 0.000 -0.846
96 288.00 1500.00 180 329 2.050 10000.000 0.000 -0.846
97 291.00 1500.00 167 349 2.050 10000.000 0.000 -0.846
98 294.00 1500.00 202 333 2.050 10000.000 0.000 -0.846
99 297.00 1500.00 199 355 2.050 10000.000 0.000 -0.846
100 300.00 1500.00 200 322 2.050 10000.000 0.000 -0.846
101 303.00 1500.00 183 324 2.050 10000.000 0.000 -0.846
102 306.00 1500.00 172 311 2.050 10000.000 0.000 -0.846
103 309.00 1500.00 164 323 2.050 10000.000 0.000 -0.846
104 312.00 1500.00 186 349 2.050 10000.000 0.000 -0.846
105 315.00 1500.00 163 361 2.050 10000.000 0.000 -0.846
106 318.00 1500.00 192 330 2.050 10000.000 0.000 -0.846
107 321.00 1500.00 168 338 2.050 10000.000 0.000 -0.846
108 324.00 1500.00 192 328 2.050 10000.000 0.000 -0.846
109 327.00 1500.00 161 337 2.050 10000.000 0.000 -0.846
110 330.00 1500.00 182 311 2.050 10000.000 0.000 -0.846
111 333.00 1500.00 175 333 2.050 10000.000 0.000 -0.846
112 336.00 1500.00 166 345 2.050 10000.000 0.000 -0.846
113 339.00 1500.00 192 323 2.050 10000.000 0.000 -0.846
114 342.00 1500.00 186 325 2.050 10000.000 0.000 -0.846
115 345.00 1500.00 182 306 2.050 10000.000 0.000 -0.846
116 348.00 1500.00 193 372 2.050 10000.000 0.000 -0.846
117 351.00 1500.00 166 311 2.050 10000.000 0.000 -0.846
118 354.00 1500.00 161 372 2.050 10000.000 0.000 -0.846
119 357.00 1500.00 168 341 2.050 10000.000 0.000 -0.846
120 360.00 1500.00 157 357 2.050 10000.000 0.000 -0.846
121 363.00 1500.00 177 367 2.050 10000.000 0.000 -0.846
122 366.00 1500.00 169 336 2.050 10000.000 0.000 -0.846
123 369.00 1500.00 159 316 2.050 10000.000 0.000 -0.846
124 372.00 1500.00 181 322 2.050 10000.000 0.000 -0.846
125 375.00 1500.00 166 319 2.050 10000.000 0.000 -0.846
126 378.00 1500.00 183 334 2.050 10000.000 0.000 -0.846
127 381.00 1500.00 186 306 2.050 10000.000 0.000 -0.846
128 384.00 1500.00 162 339 2.050 10000.000 0.000 -0.846
129 387.00 1500.00 176 346 2.050 10000.000 0.000 -0.846
130 390.00 1500.00 180 317 2.050 10000.000 0.000 -0.846
131 393.00 1500.00 176 344 2.050 10000.000 0.000 -0.846
132 396.00 1500.00 161 364 2.050 10000.000 0.000 -0.846
133 399.00 1500.00 192 304 2.050 10000.000 0.000 -0.846
134 402.00 1500.00 168 305 2.050 10000.000 0.000 -0.846
