# BinNR microsec tot-time (s)  O-Beam AUX Ampl(V) f(Hz) phase(deg) chi(pos)
0 0.00 1500.00 168 529 2.050 10000.000 0.000 -0.341
1 3.00 1500.00 376 1050 2.050 10000.000 0.000 -0.341
2 6.00 1500.00 330 1091 2.050 10000.000 0.000 -0.341
3 9.00 1500.00 337 1072 2.050 10000.000 0.000 -0.341
4 12.00 1500.00 362 1065 2.050 10000.000 0.000 -0.341
5 15.00 1500.00 341 1046 2.050 10000.000 0.000 -0.341
6 18.00 1500.00 368 1040 2.050 10000.000 0.000 -0.341
7 21.00 1500.00 370 1058 2.050 10000.000 0.000 -0.341
8 24.00 1500.00 383 1113 2.050 10000.000 0.000 -0.341
9 27.00 1500.00 326 1025 2.050 10000.000 0.000 -0.341
10 30.00 1500.00 344 1067 2.050 10000.000 0.000 -0.341
11 33.00 1500.00 358 1111 2.050 10000.000 0.000 -0.341
12 36.00 1500.00 352 1088 2.050 10000.000 0.000 -0.341
13 39.00 1500.00 367 1035 2.050 10000.000 0.000 -0.341
14 42.00 1500.00 342 1067 2.050 10000.000 0.000 -0.341
15 45.00 1500.00 327 1076 2.050 10000.000 0.000 -0.341
16 48.00 1500.00 366 1103 2.050 10000.000 0.000 -0.341
17 51.00 1500.00 340 1145 2.050 10000.000 0.000 -0.341
18 54.00 1500.00 369 1095 2.050 10000.000 0.000 -0.341
19 57.00 1500.00 375 1036 2.050 10000.000 0.000 -0.341
20 60.00 1500.00 385 1035 2.050 10000.000 0.000 -0.341
21 63.00 1500.00 334 1047 2.050 10000.000 0.000 -0.341
22 66.00 1500.00 328 1097 2.050 10000.000 0.000 -0.341
23 69.00 1500.00 360 1060 2.050 10000.000 0.000 -0.341
24 72.00 1500.00 344 1095 2.050 10000.000 0.000 -0.341
25 75.00 1500.00 362 1046 2.050 10000.000 0.000 -0.341
26 78.00 1500.00 365 1093 2.050 10000.000 0.000 -0.341
27 81.00 1500.00 335 1027 2.050 10000.000 0.000 -0.341
28 84.00 1500.00 357 1080 2.050 10000.000 0.000 -0.341
29 87.00 1500.00 325 1047 2.050 10000.000 0.000 -0.341
30 90.00 1500.00 364 1063 2.050 10000.000 0.000 -0.341
31 93.00 1500.00 365 1044 2.050 10000.000 0.000 -0.341
32 96.00 1500.00 370 1047 2.050 10000.000 0.000 -0.341
33 99.00 1500.00 323 1022 2.050 10000.000 0.000 -0.341
34 102.00 1500.00 327 1153 2.050 10000.000 0.000 -0.341
35 105.00 1500.00 336 1057 2.050 10000.000 0.000 -0.341
36 108.00 1500.00 357 1089 2.050 10000.000 0.000 -0.341
37 111.00 1500.00 343 1051 2.050 10000.000 0.000 -0.341
38 114.00 1500.00 327 1106 2.050 10000.000 0.000 -0.341
39 117.00 1500.00 357 1064 2.050 10000.000 0.000 -0.341
40 120.00 1500.00 299 1054 2.050 10000.000 0.000 -0.341
41 123.00 1500.00 338 1024 2.050 10000.000 0.000 -0.341
42 126.00 1500.00 344 1062 2.050 10000.000 0.000 -0.341
43 129.00 1500.00 363 1032 2.050 10000.000 0.000 -0.341
44 132.00 1500.00 373 1078 2.050 10000.000 0.000 -0.341
45 135.00 1500.00 350 1032 2.050 10000.000 0.000 -0.341
46 138.00 1500.00 392 1061 2.050 10000.000 0.000 -0.341
47 141.00 1500.00 342 1022 2.050 10000.000 0.000 -0.341
48 144.00 1500.00 315 1044 2.050 10000.000 0.000 -0.341
49 147.00 1500.00 357 1011 2.050 10000.000 0.000 -0.341
50 150.00 1500.00 364 1077 2.050 10000.000 0.000 -0.341
51 153.00 1500.00 350 1096 2.050 10000.000 0.000 -0.341
52 156.00 1500.00 360 1124 2.050 10000.000 0.000 -0.341
53 159.00 1500.00 346 1027 2.050 10000.000 0.000 -0.341
54 162.00 1500.00 374 1024 2.050 10000.000 0.000 -0.341
55 165.00 1500.00 348 1052 2.050 10000.000 0.000 -0.341
56 168.00 1500.00 338 1080 2.050 10000.000 0.000 -0.341
57 171.00 1500.00 327 1037 2.050 10000.000 0.000 -0.341
58 174.00 1500.00 354 1085 2.050 10000.000 0.000 -0.341
59 177.00 1500.00 319 1053 2.050 10000.000 0.000 -0.341
60 180.00 1500.00 346 1077 2.050 10000.000 0.000 -0.341
61 183.00 1500.00 372 1030 2.050 10000.000 0.000 -0.341
62 186.00 1500.00 363 1107 2.050 10000.000 0.000 -0.341
63 189.00 1500.00 349 1078 2.050 10000.000 0.000 -0.341
64 192.00 1500.00 370 1088 2.050 10000.000 0.000 -0.341
65 195.00 1500.00 336 1028 2.050 10000.000 0.000 -0.341
66 198.00 1500.00 344 1040 2.050 10000.000 0.000 -0.341
67 201.00 1500.00 350 1075 2.050 10000.000 0.000 -0.341
68 204.00 1500.00 352 1047 2.050 10000.000 0.000 -0.341
69 207.00 1500.00 327 1009 2.050 10000.000 0.000 -0.341
70 210.00 1500.00 349 1069 2.050 10000.000 0.000 -0.341
71 213.00 1500.00 362 1028 2.050 10000.000 0.000 -0.341
72 216.00 1500.00 385 1022 2.050 10000.000 0.000 -0.341
73 219.00 1500.00 357 1025 2.050 10000.000 0.000 -0.341
74 222.00 1500.00 324 1055 2.050 10000.000 0.000 -0.341
75 225.00 1500.00 342 1055 2.050 10000.000 0.000 -0.341
76 228.00 1500.00 353 1089 2.050 10000.000 0.000 -0.341
77 231.00 1500.00 350 1008 2.050 10000.000 0.000 -0.341
78 234.00 1500.00 368 1040 2.050 10000.000 0.000 -0.341
79 237.00 1500.00 338 1078 2.050 10000.000 0.000 -0.341
80 240.00 1500.00 358 1061 2.050 10000.000 0.000 -0.341
81 243.00 1500.00 346 1022 2.050 10000.000 0.000 -0.341
82 246.00 1500.00 344 1093 2.050 10000.000 0.000 -0.341
83 249.00 1500.00 352 1127 2.050 10000.000 0.000 -0.341
84 252.00 1500.00 339 1053 2.050 10000.000 0.000 -0.341
85 255.00 1500.00 357 1087 2.050 10000.000 0.000 -0.341
86 258.00 1500.00 326 1034 2.050 10000.000 0.000 -0.341
87 261.00 1500.00 341 1098 2.050 10000.000 0.000 -0.341
88 264.00 1500.00 352 1077 2.050 10000.000 0.000 -0.341
89 267.00 1500.00 356 1007 2.050 10000.000 0.000 -0.341
90 270.00 1500.00 356 1121 2.050 10000.000 0.000 -0.341
91 273.00 1500.00 354 1112 2.050 10000.000 0.000 -0.341
92 276.00 1500.00 334 1009 2.050 10000.000 0.000 -0.341
93 279.00 1500.00 363 1045 2.050 10000.000 0.000 -0.341
94 282.00 1500.00 348 1040 2.050 10000.000 0.000 -0.341
95 285.00 1500.00 346 1068 2.050 10000.000 0.000 -0.341
96 288.00 1500.00 384 1085 2.050 10000.000 0.000 -0.341
97 291.00 1500.00 323 1077 2.050 10000.000 0.000 -0.341
98 294.00 1500.00 328 1037 2.050 10000.000 0.000 -0.341
99 297.00 1500.00 367 1066 2.050 10000.000 0.000 -0.341
100 300.00 1500.00 330 1066 2.050 10000.000 0.000 -0.341
101 303.00 1500.00 352 1134 2.050 10000.000 0.000 -0.341
102 306.00 1500.00 350 1107 2.050 10000.000 0.000 -0.341
103 309.00 1500.00 361 1017 2.050 10000.000 0.000 -0.341
104 312.00 1500.00 337 1145 2.050 10000.000 0.000 -0.341
105 315.00 1500.00 361 1046 2.050 10000.000 0.000 -0.341
106 318.00 1500.00 311 1098 2.050 10000.000 0.000 -0.341
107 321.00 1500.00 343 1054 2.050 10000.000 0.000 -0.341
108 324.00 1500.00 315 1104 2.050 10000.000 0.000 -0.341
109 327.00 1500.00 346 1076 2.050 10000.000 0.000 -0.341
110 330.00 1500.00 347 1093 2.050 10000.000 0.000 -0.341
111 333.00 1500.00 348 1083 2.050 10000.000 0.000 -0.341
112 336.00 1500.00 388 1071 2.050 10000.000 0.000 -0.341
113 339.00 1500.00 320 1003 2.050 10000.000 0.000 -0.341
114 342.00 1500.00 341 1064 2.050 10000.000 0.000 -0.341
115 345.00 1500.00 352 1063 2.050 10000.000 0.000 -0.341
116 348.00 1500.00 345 1088 2.050 10000.000 0.000 -0.341
117 351.00 1500.00 347 1084 2.050 10000.000 0.000 -0.341
118 354.00 1500.00 316 1053 2.050 10000.000 0.000 -0.341
119 357.00 1500.00 352 1011 2.050 10000.000 0.000 -0.341
120 360.00 1500.00 354 1028 2.050 10000.000 0.000 -0.341
121 363.00 1500.00 368 965 2.050 10000.000 0.000 -0.341
122 366.00 1500.00 361 1041 2.050 10000.000 0.000 -0.341
123 369.00 1500.00 319 1053 2.050 10000.000 0.000 -0.341
124 372.00 1500.00 352 1066 2.050 10000.000 0.000 -0.341
125 375.00 1500.00 317 1112 2.050 10000.000 0.000 -0.341
126 378.00 1500.00 363 1113 2.050 10000.000 0.000 -0.341
127 381.00 1500.00 312 1038 2.050 10000.000 0.000 -0.341
128 384.00 1500.00 335 1000 2.050 10000.000 0.000 -0.341
129 387.00 1500.00 330 1094 2.050 10000.000 0.000 -0.341
130 390.00 1500.00 375 1063 2.050 10000.000 0.000 -0.341
131 393.00 1500.00 367 1013 2.050 10000.000 0.000 -0.341
132 396.00 1500.00 361 1086 2.050 10000.000 0.000 -0.341
133 399.00 1500.00 346 1039 2.050 10000.000 0.000 -0.341
134 402.00 1500.00 320 1067 2.050 10000.000 0.000 -0.341
