# BinNR microsec tot-time (s)  O-Beam AUX Ampl(V) f(Hz) phase(deg) chi(pos)
0 0.00 1500.03 162 369 2.050 10000.000 0.000 0.494
1 3.00 1500.03 281 724 2.050 10000.000 0.000 0.494
2 6.00 1500.03 305 705 2.050 10000.000 0.000 0.494
3 9.00 1500.03 311 701 2.050 10000.000 0.000 0.494
4 12.00 1500.03 290 740 2.050 10000.000 0.000 0.494
5 15.00 1500.03 281 705 2.050 10000.000 0.000 0.494
6 18.00 1500.03 318 768 2.050 10000.000 0.000 0.494
7 21.00 1500.03 294 739 2.050 10000.000 0.000 0.494
8 24.00 1500.03 297 738 2.050 10000.000 0.000 0.494
9 27.00 1500.03 329 755 2.050 10000.000 0.000 0.494
10 30.00 1500.03 310 762 2.050 10000.000 0.000 0.494
11 33.00 1500.03 348 748 2.050 10000.000 0.000 0.494
12 36.00 1500.03 315 783 2.050 10000.000 0.000 0.494
13 39.00 1500.03 334 729 2.050 10000.000 0.000 0.494
14 42.00 1500.03 304 808 2.050 10000.000 0.000 0.494
15 45.00 1500.03 318 717 2.050 10000.000 0.000 0.494
16 48.00 1500.03 318 720 2.050 10000.000 0.000 0.494
17 51.00 1500.03 306 776 2.050 10000.000 0.000 0.494
18 54.00 1500.03 338 750 2.050 10000.000 0.000 0.494
19 57.00 1500.03 305 738 2.050 10000.000 0.000 0.494
20 60.00 1500.03 319 722 2.050 10000.000 0.000 0.494
21 63.00 1500.03 327 751 2.050 10000.000 0.000 0.494
22 66.00 1500.03 288 742 2.050 10000.000 0.000 0.494
23 69.00 1500.03 326 750 2.050 10000.000 0.000 0.494
24 72.00 1500.03 269 770 2.050 10000.000 0.000 0.494
25 75.00 1500.03 328 696 2.050 10000.000 0.000 0.494
26 78.00 1500.03 300 798 2.050 10000.000 0.000 0.494
27 81.00 1500.03 337 686 2.050 10000.000 0.000 0.494
28 84.00 1500.03 327 758 2.050 10000.000 0.000 0.494
29 87.00 1500.03 312 733 2.050 10000.000 0.000 0.494
30 90.00 1500.03 284 743 2.050 10000.000 0.000 0.494
31 93.00 1500.03 278 732 2.050 10000.000 0.000 0.494
32 96.00 1500.03 308 804 2.050 10000.000 0.000 0.494
33 99.00 1500.03 302 793 2.050 10000.000 0.000 0.494
34 102.00 1500.03 323 739 2.050 10000.000 0.000 0.494
35 105.00 1500.03 316 793 2.050 10000.000 0.000 0.494
36 108.00 1500.03 326 732 2.050 10000.000 0.000 0.494
37 111.00 1500.03 311 735 2.050 10000.000 0.000 0.494
38 114.00 1500.03 336 705 2.050 10000.000 0.000 0.494
39 117.00 1500.03 312 815 2.050 10000.000 0.000 0.494
40 120.00 1500.03 280 777 2.050 10000.000 0.000 0.494
41 123.00 1500.03 312 721 2.050 10000.000 0.000 0.494
42 126.00 1500.03 309 735 2.050 10000.000 0.000 0.494
43 129.00 1500.03 314 714 2.050 10000.000 0.000 0.494
44 132.00 1500.03 323 767 2.050 10000.000 0.000 0.494
45 135.00 1500.03 332 736 2.050 10000.000 0.000 0.494
46 138.00 1500.03 341 766 2.050 10000.000 0.000 0.494
47 141.00 1500.03 339 792 2.050 10000.000 0.000 0.494
48 144.00 1500.03 313 777 2.050 10000.000 0.000 0.494
49 147.00 1500.03 275 731 2.050 10000.000 0.000 0.494
50 150.00 1500.03 323 757 2.050 10000.000 0.000 0.494
51 153.00 1500.03 290 745 2.050 10000.000 0.000 0.494
52 156.00 1500.03 323 747 2.050 10000.000 0.000 0.494
53 159.00 1500.03 322 754 2.050 10000.000 0.000 0.494
54 162.00 1500.03 338 810 2.050 10000.000 0.000 0.494
55 165.00 1500.03 309 725 2.050 10000.000 0.000 0.494
56 168.00 1500.03 303 782 2.050 10000.000 0.000 0.494
57 171.00 1500.03 307 741 2.050 10000.000 0.000 0.494
58 174.00 1500.03 285 788 2.050 10000.000 0.000 0.494
59 177.00 1500.03 308 717 2.050 10000.000 0.000 0.494
60 180.00 1500.03 287 828 2.050 10000.000 0.000 0.494
61 183.00 1500.03 317 709 2.050 10000.000 0.000 0.494
62 186.00 1500.03 301 724 2.050 10000.000 0.000 0.494
63 189.00 1500.03 302 740 2.050 10000.000 0.000 0.494
64 192.00 1500.03 283 772 2.050 10000.000 0.000 0.494
65 195.00 1500.03 311 752 2.050 10000.000 0.000 0.494
66 198.00 1500.03 298 811 2.050 10000.000 0.000 0.494
67 201.00 1500.03 304 736 2.050 10000.000 0.000 0.494
68 204.00 1500.03 311 747 2.050 10000.000 0.000 0.494
69 207.00 1500.03 296 722 2.050 10000.000 0.000 0.494
70 210.00 1500.03 277 771 2.050 10000.000 0.000 0.494
71 213.00 1500.03 334 732 2.050 10000.000 0.000 0.494
72 216.00 1500.03 293 719 2.050 10000.000 0.000 0.494
73 219.00 1500.03 324 766 2.050 10000.000 0.000 0.494
74 222.00 1500.03 318 798 2.050 10000.000 0.000 0.494
75 225.00 1500.03 297 724 2.050 10000.000 0.000 0.494
76 228.00 1500.03 313 798 2.050 10000.000 0.000 0.494
77 231.00 1500.03 319 729 2.050 10000.000 0.000 0.494
78 234.00 1500.03 304 777 2.050 10000.000 0.000 0.494
79 237.00 1500.03 302 800 2.050 10000.000 0.000 0.494
80 240.00 1500.03 278 778 2.050 10000.000 0.000 0.494
81 243.00 1500.03 326 741 2.050 10000.000 0.000 0.494
82 246.00 1500.03 311 763 2.050 10000.000 0.000 0.494
83 249.00 1500.03 338 708 2.050 10000.000 0.000 0.494
84 252.00 1500.03 317 713 2.050 10000.000 0.000 0.494
85 255.00 1500.03 309 763 2.050 10000.000 0.000 0.494
86 258.00 1500.03 325 761 2.050 10000.000 0.000 0.494
87 261.00 1500.03 268 707 2.050 10000.000 0.000 0.494
88 264.00 1500.03 325 720 2.050 10000.000 0.000 0.494
89 267.00 1500.03 302 762 2.050 10000.000 0.000 0.494
90 270.00 1500.03 294 789 2.050 10000.000 0.000 0.494
91 273.00 1500.03 298 747 2.050 10000.000 0.000 0.494
92 276.00 1500.03 315 705 2.050 10000.000 0.000 0.494
93 279.00 1500.03 295 751 2.050 10000.000 0.000 0.494
94 282.00 1500.03 315 760 2.050 10000.000 0.000 0.494
95 285.00 1500.03 282 736 2.050 10000.000 0.000 0.494
96 288.00 1500.03 301 773 2.050 10000.000 0.000 0.494
97 291.00 1500.03 306 764 2.050 10000.000 0.000 0.494
98 294.00 1500.03 311 737 2.050 10000.000 0.000 0.494
99 297.00 1500.03 319 757 2.050 10000.000 0.000 0.494
100 300.00 1500.03 349 720 2.050 10000.000 0.000 0.494
101 303.00 1500.03 284 738 2.050 10000.000 0.000 0.494
102 306.00 1500.03 319 742 2.050 10000.000 0.000 0.494
103 309.00 1500.03 324 775 2.050 10000.000 0.000 0.494
104 312.00 1500.03 311 789 2.050 10000.000 0.000 0.494
105 315.00 1500.03 288 732 2.050 10000.000 0.000 0.494
106 318.00 1500.03 308 694 2.050 10000.000 0.000 0.494
107 321.00 1500.03 304 714 2.050 10000.000 0.000 0.494
108 324.00 1500.03 309 767 2.050 10000.000 0.000 0.494
109 327.00 1500.03 302 735 2.050 10000.000 0.000 0.494
110 330.00 1500.03 298 805 2.050 10000.000 0.000 0.494
111 333.00 1500.03 315 757 2.050 10000.000 0.000 0.494
112 336.00 1500.03 274 696 2.050 10000.000 0.000 0.494
113 339.00 1500.03 338 706 2.050 10000.000 0.000 0.494
114 342.00 1500.03 304 765 2.050 10000.000 0.000 0.494
115 345.00 1500.03 344 711 2.050 10000.000 0.000 0.494
116 348.00 1500.03 310 823 2.050 10000.000 0.000 0.494
117 351.00 1500.03 324 732 2.050 10000.000 0.000 0.494
118 354.00 1500.03 327 696 2.050 10000.000 0.000 0.494
119 357.00 1500.03 323 706 2.050 10000.000 0.000 0.494
120 360.00 1500.03 317 727 2.050 10000.000 0.000 0.494
121 363.00 1500.03 319 750 2.050 10000.000 0.000 0.494
122 366.00 1500.03 321 713 2.050 10000.000 0.000 0.494
123 369.00 1500.03 339 759 2.050 10000.000 0.000 0.494
124 372.00 1500.03 337 715 2.050 10000.000 0.000 0.494
125 375.00 1500.03 312 732 2.050 10000.000 0.000 0.494
126 378.00 1500.03 343 758 2.050 10000.000 0.000 0.494
127 381.00 1500.03 321 791 2.050 10000.000 0.000 0.494
128 384.00 1500.03 295 777 2.050 10000.000 0.000 0.494
129 387.00 1500.03 295 755 2.050 10000.000 0.000 0.494
130 390.00 1500.03 295 723 2.050 10000.000 0.000 0.494
131 393.00 1500.03 307 737 2.050 10000.000 0.000 0.494
132 396.00 1500.03 284 714 2.050 10000.000 0.000 0.494
133 399.00 1500.03 305 773 2.050 10000.000 0.000 0.494
134 402.00 1500.03 334 751 2.050 10000.000 0.000 0.494
