# BinNR microsec tot-time (s)  O-Beam AUX Ampl(V) f(Hz) phase(deg) chi(pos)
0 0.00 1200.01 49 75 2.000 10000.000 0.000 -1.296
1 3.00 1200.01 105 168 2.000 10000.000 0.000 -1.296
2 6.00 1200.01 97 193 2.000 10000.000 0.000 -1.296
3 9.00 1200.01 89 212 2.000 10000.000 0.000 -1.296
4 12.00 1200.01 107 251 2.000 10000.000 0.000 -1.296
5 15.00 1200.01 95 251 2.000 10000.000 0.000 -1.296
6 18.00 1200.01 112 275 2.000 10000.000 0.000 -1.296
7 21.00 1200.01 102 282 2.000 10000.000 0.000 -1.296
8 24.00 1200.01 108 244 2.000 10000.000 0.000 -1.296
9 27.00 1200.01 100 214 2.000 10000.000 0.000 -1.296
10 30.00 1200.01 92 177 2.000 10000.000 0.000 -1.296
11 33.00 1200.01 104 178 2.000 10000.000 0.000 -1.296
12 36.00 1200.01 80 156 2.000 10000.000 0.000 -1.296
13 39.00 1200.01 89 124 2.000 10000.000 0.000 -1.296
14 42.00 1200.01 117 138 2.000 10000.000 0.000 -1.296
15 45.00 1200.01 103 162 2.000 10000.000 0.000 -1.296
16 48.00 1200.01 127 214 2.000 10000.000 0.000 -1.296
17 51.00 1200.01 144 225 2.000 10000.000 0.000 -1.296
18 54.00 1200.01 150 295 2.000 10000.000 0.000 -1.296
19 57.00 1200.01 192 337 2.000 10000.000 0.000 -1.296
20 60.00 1200.01 187 372 2.000 10000.000 0.000 -1.296
21 63.00 1200.01 185 408 2.000 10000.000 0.000 -1.296
22 66.00 1200.01 184 443 2.000 10000.000 0.000 -1.296
23 69.00 1200.01 202 448 2.000 10000.000 0.000 -1.296
24 72.00 1200.01 199 417 2.000 10000.000 0.000 -1.296
25 75.00 1200.01 186 373 2.000 10000.000 0.000 -1.296
26 78.00 1200.01 192 328 2.000 10000.000 0.000 -1.296
27 81.00 1200.01 172 275 2.000 10000.000 0.000 -1.296
28 84.00 1200.01 139 219 2.000 10000.000 0.000 -1.296
29 87.00 1200.01 134 181 2.000 10000.000 0.000 -1.296
30 90.00 1200.01 138 149 2.000 10000.000 0.000 -1.296
31 93.00 1200.01 124 145 2.000 10000.000 0.000 -1.296
32 96.00 1200.01 109 106 2.000 10000.000 0.000 -1.296
33 99.00 1200.01 102 144 2.000 10000.000 0.000 -1.296
34 102.00 1200.01 107 132 2.000 10000.000 0.000 -1.296
35 105.00 1200.01 89 190 2.000 10000.000 0.000 -1.296
36 108.00 1200.01 102 254 2.000 10000.000 0.000 -1.296
37 111.00 1200.01 82 262 2.000 10000.000 0.000 -1.296
38 114.00 1200.01 107 248 2.000 10000.000 0.000 -1.296
39 117.00 1200.01 98 261 2.000 10000.000 0.000 -1.296
40 120.00 1200.01 112 257 2.000 10000.000 0.000 -1.296
41 123.00 1200.01 116 218 2.000 10000.000 0.000 -1.296
42 126.00 1200.01 118 239 2.000 10000.000 0.000 -1.296
43 129.00 1200.01 81 189 2.000 10000.000 0.000 -1.296
44 132.00 1200.01 104 192 2.000 10000.000 0.000 -1.296
45 135.00 1200.01 87 142 2.000 10000.000 0.000 -1.296
46 138.00 1200.01 102 128 2.000 10000.000 0.000 -1.296
47 141.00 1200.01 95 144 2.000 10000.000 0.000 -1.296
48 144.00 1200.01 94 146 2.000 10000.000 0.000 -1.296
49 147.00 1200.01 118 197 2.000 10000.000 0.000 -1.296
50 150.00 1200.01 116 191 2.000 10000.000 0.000 -1.296
51 153.00 1200.01 119 275 2.000 10000.000 0.000 -1.296
52 156.00 1200.01 158 297 2.000 10000.000 0.000 -1.296
53 159.00 1200.01 187 353 2.000 10000.000 0.000 -1.296
54 162.00 1200.01 180 414 2.000 10000.000 0.000 -1.296
55 165.00 1200.01 151 400 2.000 10000.000 0.000 -1.296
56 168.00 1200.01 194 425 2.000 10000.000 0.000 -1.296
57 171.00 1200.01 189 389 2.000 10000.000 0.000 -1.296
58 174.00 1200.01 187 382 2.000 10000.000 0.000 -1.296
59 177.00 1200.01 184 350 2.000 10000.000 0.000 -1.296
60 180.00 1200.01 184 333 2.000 10000.000 0.000 -1.296
61 183.00 1200.01 162 260 2.000 10000.000 0.000 -1.296
62 186.00 1200.01 154 208 2.000 10000.000 0.000 -1.296
63 189.00 1200.01 156 164 2.000 10000.000 0.000 -1.296
64 192.00 1200.01 133 147 2.000 10000.000 0.000 -1.296
65 195.00 1200.01 133 135 2.000 10000.000 0.000 -1.296
66 198.00 1200.01 113 126 2.000 10000.000 0.000 -1.296
67 201.00 1200.01 125 157 2.000 10000.000 0.000 -1.296
68 204.00 1200.01 88 186 2.000 10000.000 0.000 -1.296
69 207.00 1200.01 105 200 2.000 10000.000 0.000 -1.296
70 210.00 1200.01 96 258 2.000 10000.000 0.000 -1.296
71 213.00 1200.01 95 259 2.000 10000.000 0.000 -1.296
72 216.00 1200.01 117 281 2.000 10000.000 0.000 -1.296
73 219.00 1200.01 104 272 2.000 10000.000 0.000 -1.296
74 222.00 1200.01 99 270 2.000 10000.000 0.000 -1.296
75 225.00 1200.01 104 268 2.000 10000.000 0.000 -1.296
76 228.00 1200.01 90 214 2.000 10000.000 0.000 -1.296
77 231.00 1200.01 104 205 2.000 10000.000 0.000 -1.296
78 234.00 1200.01 80 165 2.000 10000.000 0.000 -1.296
79 237.00 1200.01 101 136 2.000 10000.000 0.000 -1.296
80 240.00 1200.01 95 136 2.000 10000.000 0.000 -1.296
81 243.00 1200.01 101 159 2.000 10000.000 0.000 -1.296
82 246.00 1200.01 99 151 2.000 10000.000 0.000 -1.296
83 249.00 1200.01 102 188 2.000 10000.000 0.000 -1.296
84 252.00 1200.01 130 256 2.000 10000.000 0.000 -1.296
85 255.00 1200.01 156 333 2.000 10000.000 0.000 -1.296
86 258.00 1200.01 155 335 2.000 10000.000 0.000 -1.296
87 261.00 1200.01 173 397 2.000 10000.000 0.000 -1.296
88 264.00 1200.01 183 430 2.000 10000.000 0.000 -1.296
89 267.00 1200.01 183 385 2.000 10000.000 0.000 -1.296
90 270.00 1200.01 193 426 2.000 10000.000 0.000 -1.296
91 273.00 1200.01 191 398 2.000 10000.000 0.000 -1.296
92 276.00 1200.01 194 351 2.000 10000.000 0.000 -1.296
93 279.00 1200.01 187 354 2.000 10000.000 0.000 -1.296
94 282.00 1200.01 177 250 2.000 10000.000 0.000 -1.296
95 285.00 1200.01 146 221 2.000 10000.000 0.000 -1.296
96 288.00 1200.01 125 182 2.000 10000.000 0.000 -1.296
97 291.00 1200.01 128 156 2.000 10000.000 0.000 -1.296
98 294.00 1200.01 129 139 2.000 10000.000 0.000 -1.296
99 297.00 1200.01 105 143 2.000 10000.000 0.000 -1.296
100 300.00 1200.01 96 132 2.000 10000.000 0.000 -1.296
