# BinNR microsec tot-time (s)  O-Beam AUX Ampl(V) f(Hz) phase(deg) chi(pos)
0 0.00 1200.01 76 253 2.000 10000.000 0.000 1.494
1 3.00 1200.01 156 567 2.000 10000.000 0.000 1.494
2 6.00 1200.01 165 553 2.000 10000.000 0.000 1.494
3 9.00 1200.01 150 524 2.000 10000.000 0.000 1.494
4 12.00 1200.01 190 570 2.000 10000.000 0.000 1.494
5 15.00 1200.01 191 554 2.000 10000.000 0.000 1.494
6 18.00 1200.01 199 554 2.000 10000.000 0.000 1.494
7 21.00 1200.01 171 556 2.000 10000.000 0.000 1.494
8 24.00 1200.01 193 572 2.000 10000.000 0.000 1.494
9 27.00 1200.01 183 549 2.000 10000.000 0.000 1.494
10 30.00 1200.01 177 509 2.000 10000.000 0.000 1.494
11 33.00 1200.01 143 533 2.000 10000.000 0.000 1.494
12 36.00 1200.01 166 486 2.000 10000.000 0.000 1.494
13 39.00 1200.01 159 431 2.000 10000.000 0.000 1.494
14 42.00 1200.01 146 440 2.000 10000.000 0.000 1.494
15 45.00 1200.01 110 398 2.000 10000.000 0.000 1.494
16 48.00 1200.01 113 397 2.000 10000.000 0.000 1.494
17 51.00 1200.01 116 338 2.000 10000.000 0.000 1.494
18 54.00 1200.01 106 294 2.000 10000.000 0.000 1.494
19 57.00 1200.01 105 237 2.000 10000.000 0.000 1.494
20 60.00 1200.01 95 295 2.000 10000.000 0.000 1.494
21 63.00 1200.01 104 223 2.000 10000.000 0.000 1.494
22 66.00 1200.01 98 241 2.000 10000.000 0.000 1.494
23 69.00 1200.01 86 192 2.000 10000.000 0.000 1.494
24 72.00 1200.01 91 215 2.000 10000.000 0.000 1.494
25 75.00 1200.01 81 227 2.000 10000.000 0.000 1.494
26 78.00 1200.01 72 276 2.000 10000.000 0.000 1.494
27 81.00 1200.01 95 273 2.000 10000.000 0.000 1.494
28 84.00 1200.01 95 323 2.000 10000.000 0.000 1.494
29 87.00 1200.01 110 373 2.000 10000.000 0.000 1.494
30 90.00 1200.01 113 400 2.000 10000.000 0.000 1.494
31 93.00 1200.01 130 441 2.000 10000.000 0.000 1.494
32 96.00 1200.01 133 469 2.000 10000.000 0.000 1.494
33 99.00 1200.01 154 505 2.000 10000.000 0.000 1.494
34 102.00 1200.01 157 515 2.000 10000.000 0.000 1.494
35 105.00 1200.01 192 472 2.000 10000.000 0.000 1.494
36 108.00 1200.01 180 583 2.000 10000.000 0.000 1.494
37 111.00 1200.01 195 565 2.000 10000.000 0.000 1.494
38 114.00 1200.01 181 602 2.000 10000.000 0.000 1.494
39 117.00 1200.01 195 578 2.000 10000.000 0.000 1.494
40 120.00 1200.01 187 596 2.000 10000.000 0.000 1.494
41 123.00 1200.01 188 516 2.000 10000.000 0.000 1.494
42 126.00 1200.01 190 591 2.000 10000.000 0.000 1.494
43 129.00 1200.01 191 564 2.000 10000.000 0.000 1.494
44 132.00 1200.01 164 487 2.000 10000.000 0.000 1.494
45 135.00 1200.01 173 493 2.000 10000.000 0.000 1.494
46 138.00 1200.01 154 475 2.000 10000.000 0.000 1.494
47 141.00 1200.01 125 427 2.000 10000.000 0.000 1.494
48 144.00 1200.01 146 396 2.000 10000.000 0.000 1.494
49 147.00 1200.01 125 334 2.000 10000.000 0.000 1.494
50 150.00 1200.01 126 359 2.000 10000.000 0.000 1.494
51 153.00 1200.01 104 273 2.000 10000.000 0.000 1.494
52 156.00 1200.01 81 278 2.000 10000.000 0.000 1.494
53 159.00 1200.01 98 267 2.000 10000.000 0.000 1.494
54 162.00 1200.01 91 243 2.000 10000.000 0.000 1.494
55 165.00 1200.01 104 243 2.000 10000.000 0.000 1.494
56 168.00 1200.01 72 259 2.000 10000.000 0.000 1.494
57 171.00 1200.01 96 235 2.000 10000.000 0.000 1.494
58 174.00 1200.01 77 224 2.000 10000.000 0.000 1.494
59 177.00 1200.01 95 280 2.000 10000.000 0.000 1.494
60 180.00 1200.01 93 295 2.000 10000.000 0.000 1.494
61 183.00 1200.01 81 319 2.000 10000.000 0.000 1.494
62 186.00 1200.01 99 374 2.000 10000.000 0.000 1.494
63 189.00 1200.01 101 428 2.000 10000.000 0.000 1.494
64 192.00 1200.01 117 426 2.000 10000.000 0.000 1.494
65 195.00 1200.01 133 485 2.000 10000.000 0.000 1.494
66 198.00 1200.01 160 508 2.000 10000.000 0.000 1.494
67 201.00 1200.01 121 570 2.000 10000.000 0.000 1.494
68 204.00 1200.01 170 550 2.000 10000.000 0.000 1.494
69 207.00 1200.01 156 534 2.000 10000.000 0.000 1.494
70 210.00 1200.01 173 582 2.000 10000.000 0.000 1.494
71 213.00 1200.01 185 571 2.000 10000.000 0.000 1.494
72 216.00 1200.01 189 567 2.000 10000.000 0.000 1.494
73 219.00 1200.01 170 581 2.000 10000.000 0.000 1.494
74 222.00 1200.01 180 585 2.000 10000.000 0.000 1.494
75 225.00 1200.01 201 577 2.000 10000.000 0.000 1.494
76 228.00 1200.01 168 548 2.000 10000.000 0.000 1.494
77 231.00 1200.01 168 543 2.000 10000.000 0.000 1.494
78 234.00 1200.01 178 521 2.000 10000.000 0.000 1.494
79 237.00 1200.01 166 512 2.000 10000.000 0.000 1.494
80 240.00 1200.01 143 446 2.000 10000.000 0.000 1.494
81 243.00 1200.01 147 422 2.000 10000.000 0.000 1.494
82 246.00 1200.01 126 389 2.000 10000.000 0.000 1.494
83 249.00 1200.01 118 391 2.000 10000.000 0.000 1.494
84 252.00 1200.01 125 337 2.000 10000.000 0.000 1.494
85 255.00 1200.01 108 300 2.000 10000.000 0.000 1.494
86 258.00 1200.01 102 271 2.000 10000.000 0.000 1.494
87 261.00 1200.01 96 239 2.000 10000.000 0.000 1.494
88 264.00 1200.01 99 247 2.000 10000.000 0.000 1.494
89 267.00 1200.01 85 227 2.000 10000.000 0.000 1.494
90 270.00 1200.01 88 237 2.000 10000.000 0.000 1.494
91 273.00 1200.01 84 218 2.000 10000.000 0.000 1.494
92 276.00 1200.01 89 230 2.000 10000.000 0.000 1.494
93 279.00 1200.01 85 277 2.000 10000.000 0.000 1.494
94 282.00 1200.01 92 262 2.000 10000.000 0.000 1.494
95 285.00 1200.01 90 346 2.000 10000.000 0.000 1.494
96 288.00 1200.01 96 401 2.000 10000.000 0.000 1.494
97 291.00 1200.01 118 421 2.000 10000.000 0.000 1.494
98 294.00 1200.01 116 498 2.000 10000.000 0.000 1.494
99 297.00 1200.01 125 485 2.000 10000.000 0.000 1.494
100 300.00 1200.01 140 429 2.000 10000.000 0.000 1.494
