# BinNR microsec tot-time (s)  O-Beam AUX Ampl(V) f(Hz) phase(deg) chi(pos)
0 0.00 1200.00 55 150 2.000 10000.000 0.000 1.296
1 3.00 1200.00 105 390 2.000 10000.000 0.000 1.296
2 6.00 1200.00 110 361 2.000 10000.000 0.000 1.296
3 9.00 1200.00 133 408 2.000 10000.000 0.000 1.296
4 12.00 1200.00 137 486 2.000 10000.000 0.000 1.296
5 15.00 1200.00 128 449 2.000 10000.000 0.000 1.296
6 18.00 1200.00 141 432 2.000 10000.000 0.000 1.296
7 21.00 1200.00 137 458 2.000 10000.000 0.000 1.296
8 24.00 1200.00 127 465 2.000 10000.000 0.000 1.296
9 27.00 1200.00 123 435 2.000 10000.000 0.000 1.296
10 30.00 1200.00 139 385 2.000 10000.000 0.000 1.296
11 33.00 1200.00 123 336 2.000 10000.000 0.000 1.296
12 36.00 1200.00 114 336 2.000 10000.000 0.000 1.296
13 39.00 1200.00 102 254 2.000 10000.000 0.000 1.296
14 42.00 1200.00 89 246 2.000 10000.000 0.000 1.296
15 45.00 1200.00 77 207 2.000 10000.000 0.000 1.296
16 48.00 1200.00 91 215 2.000 10000.000 0.000 1.296
17 51.00 1200.00 87 150 2.000 10000.000 0.000 1.296
18 54.00 1200.00 63 147 2.000 10000.000 0.000 1.296
19 57.00 1200.00 66 115 2.000 10000.000 0.000 1.296
20 60.00 1200.00 67 128 2.000 10000.000 0.000 1.296
21 63.00 1200.00 67 111 2.000 10000.000 0.000 1.296
22 66.00 1200.00 83 113 2.000 10000.000 0.000 1.296
23 69.00 1200.00 62 108 2.000 10000.000 0.000 1.296
24 72.00 1200.00 69 96 2.000 10000.000 0.000 1.296
25 75.00 1200.00 68 100 2.000 10000.000 0.000 1.296
26 78.00 1200.00 59 104 2.000 10000.000 0.000 1.296
27 81.00 1200.00 77 123 2.000 10000.000 0.000 1.296
28 84.00 1200.00 78 160 2.000 10000.000 0.000 1.296
29 87.00 1200.00 84 172 2.000 10000.000 0.000 1.296
30 90.00 1200.00 88 192 2.000 10000.000 0.000 1.296
31 93.00 1200.00 91 265 2.000 10000.000 0.000 1.296
32 96.00 1200.00 100 327 2.000 10000.000 0.000 1.296
33 99.00 1200.00 97 334 2.000 10000.000 0.000 1.296
34 102.00 1200.00 101 408 2.000 10000.000 0.000 1.296
35 105.00 1200.00 119 370 2.000 10000.000 0.000 1.296
36 108.00 1200.00 132 436 2.000 10000.000 0.000 1.296
37 111.00 1200.00 112 433 2.000 10000.000 0.000 1.296
38 114.00 1200.00 137 481 2.000 10000.000 0.000 1.296
39 117.00 1200.00 137 468 2.000 10000.000 0.000 1.296
40 120.00 1200.00 129 492 2.000 10000.000 0.000 1.296
41 123.00 1200.00 133 446 2.000 10000.000 0.000 1.296
42 126.00 1200.00 132 478 2.000 10000.000 0.000 1.296
43 129.00 1200.00 119 409 2.000 10000.000 0.000 1.296
44 132.00 1200.00 122 352 2.000 10000.000 0.000 1.296
45 135.00 1200.00 109 294 2.000 10000.000 0.000 1.296
46 138.00 1200.00 108 288 2.000 10000.000 0.000 1.296
47 141.00 1200.00 103 308 2.000 10000.000 0.000 1.296
48 144.00 1200.00 82 231 2.000 10000.000 0.000 1.296
49 147.00 1200.00 87 209 2.000 10000.000 0.000 1.296
50 150.00 1200.00 73 175 2.000 10000.000 0.000 1.296
51 153.00 1200.00 70 163 2.000 10000.000 0.000 1.296
52 156.00 1200.00 69 133 2.000 10000.000 0.000 1.296
53 159.00 1200.00 61 123 2.000 10000.000 0.000 1.296
54 162.00 1200.00 72 111 2.000 10000.000 0.000 1.296
55 165.00 1200.00 60 121 2.000 10000.000 0.000 1.296
56 168.00 1200.00 67 95 2.000 10000.000 0.000 1.296
57 171.00 1200.00 69 113 2.000 10000.000 0.000 1.296
58 174.00 1200.00 74 113 2.000 10000.000 0.000 1.296
59 177.00 1200.00 51 103 2.000 10000.000 0.000 1.296
60 180.00 1200.00 70 120 2.000 10000.000 0.000 1.296
61 183.00 1200.00 45 135 2.000 10000.000 0.000 1.296
62 186.00 1200.00 72 196 2.000 10000.000 0.000 1.296
63 189.00 1200.00 71 210 2.000 10000.000 0.000 1.296
64 192.00 1200.00 58 232 2.000 10000.000 0.000 1.296
65 195.00 1200.00 79 297 2.000 10000.000 0.000 1.296
66 198.00 1200.00 90 313 2.000 10000.000 0.000 1.296
67 201.00 1200.00 92 323 2.000 10000.000 0.000 1.296
68 204.00 1200.00 101 417 2.000 10000.000 0.000 1.296
69 207.00 1200.00 123 407 2.000 10000.000 0.000 1.296
70 210.00 1200.00 131 437 2.000 10000.000 0.000 1.296
71 213.00 1200.00 116 519 2.000 10000.000 0.000 1.296
72 216.00 1200.00 120 473 2.000 10000.000 0.000 1.296
73 219.00 1200.00 146 490 2.000 10000.000 0.000 1.296
74 222.00 1200.00 135 487 2.000 10000.000 0.000 1.296
75 225.00 1200.00 120 440 2.000 10000.000 0.000 1.296
76 228.00 1200.00 131 437 2.000 10000.000 0.000 1.296
77 231.00 1200.00 130 388 2.000 10000.000 0.000 1.296
78 234.00 1200.00 127 361 2.000 10000.000 0.000 1.296
79 237.00 1200.00 130 302 2.000 10000.000 0.000 1.296
80 240.00 1200.00 99 308 2.000 10000.000 0.000 1.296
81 243.00 1200.00 91 229 2.000 10000.000 0.000 1.296
82 246.00 1200.00 83 202 2.000 10000.000 0.000 1.296
83 249.00 1200.00 86 172 2.000 10000.000 0.000 1.296
84 252.00 1200.00 90 128 2.000 10000.000 0.000 1.296
85 255.00 1200.00 75 144 2.000 10000.000 0.000 1.296
86 258.00 1200.00 70 123 2.000 10000.000 0.000 1.296
87 261.00 1200.00 73 102 2.000 10000.000 0.000 1.296
88 264.00 1200.00 60 134 2.000 10000.000 0.000 1.296
89 267.00 1200.00 67 110 2.000 10000.000 0.000 1.296
90 270.00 1200.00 81 97 2.000 10000.000 0.000 1.296
91 273.00 1200.00 76 109 2.000 10000.000 0.000 1.296
92 276.00 1200.00 82 108 2.000 10000.000 0.000 1.296
93 279.00 1200.00 73 125 2.000 10000.000 0.000 1.296
94 282.00 1200.00 64 159 2.000 10000.000 0.000 1.296
95 285.00 1200.00 70 166 2.000 10000.000 0.000 1.296
96 288.00 1200.00 66 182 2.000 10000.000 0.000 1.296
97 291.00 1200.00 73 214 2.000 10000.000 0.000 1.296
98 294.00 1200.00 82 276 2.000 10000.000 0.000 1.296
99 297.00 1200.00 97 300 2.000 10000.000 0.000 1.296
100 300.00 1200.00 70 307 2.000 10000.000 0.000 1.296
