# BinNR microsec tot-time (s)  O-Beam AUX Ampl(V) f(Hz) phase(deg) chi(pos)
0 0.00 1200.01 56 49 2.000 10000.000 0.000 0.703
1 3.00 1200.01 77 119 2.000 10000.000 0.000 0.703
2 6.00 1200.01 107 109 2.000 10000.000 0.000 0.703
3 9.00 1200.01 91 112 2.000 10000.000 0.000 0.703
4 12.00 1200.01 73 106 2.000 10000.000 0.000 0.703
5 15.00 1200.01 75 116 2.000 10000.000 0.000 0.703
6 18.00 1200.01 77 99 2.000 10000.000 0.000 0.703
7 21.00 1200.01 90 115 2.000 10000.000 0.000 0.703
8 24.00 1200.01 71 107 2.000 10000.000 0.000 0.703
9 27.00 1200.01 82 128 2.000 10000.000 0.000 0.703
10 30.00 1200.01 95 112 2.000 10000.000 0.000 0.703
11 33.00 1200.01 111 115 2.000 10000.000 0.000 0.703
12 36.00 1200.01 109 161 2.000 10000.000 0.000 0.703
13 39.00 1200.01 122 167 2.000 10000.000 0.000 0.703
14 42.00 1200.01 121 202 2.000 10000.000 0.000 0.703
15 45.00 1200.01 145 265 2.000 10000.000 0.000 0.703
16 48.00 1200.01 155 295 2.000 10000.000 0.000 0.703
17 51.00 1200.01 167 330 2.000 10000.000 0.000 0.703
18 54.00 1200.01 188 358 2.000 10000.000 0.000 0.703
19 57.00 1200.01 184 378 2.000 10000.000 0.000 0.703
20 60.00 1200.01 202 458 2.000 10000.000 0.000 0.703
21 63.00 1200.01 200 452 2.000 10000.000 0.000 0.703
22 66.00 1200.01 241 528 2.000 10000.000 0.000 0.703
23 69.00 1200.01 201 454 2.000 10000.000 0.000 0.703
24 72.00 1200.01 190 450 2.000 10000.000 0.000 0.703
25 75.00 1200.01 215 498 2.000 10000.000 0.000 0.703
26 78.00 1200.01 206 432 2.000 10000.000 0.000 0.703
27 81.00 1200.01 180 394 2.000 10000.000 0.000 0.703
28 84.00 1200.01 184 350 2.000 10000.000 0.000 0.703
29 87.00 1200.01 154 316 2.000 10000.000 0.000 0.703
30 90.00 1200.01 147 206 2.000 10000.000 0.000 0.703
31 93.00 1200.01 147 206 2.000 10000.000 0.000 0.703
32 96.00 1200.01 139 175 2.000 10000.000 0.000 0.703
33 99.00 1200.01 116 129 2.000 10000.000 0.000 0.703
34 102.00 1200.01 116 107 2.000 10000.000 0.000 0.703
35 105.00 1200.01 89 103 2.000 10000.000 0.000 0.703
36 108.00 1200.01 94 104 2.000 10000.000 0.000 0.703
37 111.00 1200.01 97 100 2.000 10000.000 0.000 0.703
38 114.00 1200.01 90 111 2.000 10000.000 0.000 0.703
39 117.00 1200.01 69 114 2.000 10000.000 0.000 0.703
40 120.00 1200.01 79 111 2.000 10000.000 0.000 0.703
41 123.00 1200.01 66 115 2.000 10000.000 0.000 0.703
42 126.00 1200.01 75 97 2.000 10000.000 0.000 0.703
43 129.00 1200.01 67 119 2.000 10000.000 0.000 0.703
44 132.00 1200.01 89 101 2.000 10000.000 0.000 0.703
45 135.00 1200.01 96 140 2.000 10000.000 0.000 0.703
46 138.00 1200.01 89 147 2.000 10000.000 0.000 0.703
47 141.00 1200.01 106 192 2.000 10000.000 0.000 0.703
48 144.00 1200.01 140 227 2.000 10000.000 0.000 0.703
49 147.00 1200.01 145 266 2.000 10000.000 0.000 0.703
50 150.00 1200.01 165 317 2.000 10000.000 0.000 0.703
51 153.00 1200.01 158 370 2.000 10000.000 0.000 0.703
52 156.00 1200.01 170 424 2.000 10000.000 0.000 0.703
53 159.00 1200.01 183 440 2.000 10000.000 0.000 0.703
54 162.00 1200.01 196 505 2.000 10000.000 0.000 0.703
55 165.00 1200.01 195 498 2.000 10000.000 0.000 0.703
56 168.00 1200.01 231 480 2.000 10000.000 0.000 0.703
57 171.00 1200.01 201 487 2.000 10000.000 0.000 0.703
58 174.00 1200.01 202 487 2.000 10000.000 0.000 0.703
59 177.00 1200.01 195 467 2.000 10000.000 0.000 0.703
60 180.00 1200.01 206 384 2.000 10000.000 0.000 0.703
61 183.00 1200.01 184 346 2.000 10000.000 0.000 0.703
62 186.00 1200.01 158 323 2.000 10000.000 0.000 0.703
63 189.00 1200.01 152 252 2.000 10000.000 0.000 0.703
64 192.00 1200.01 154 230 2.000 10000.000 0.000 0.703
65 195.00 1200.01 107 169 2.000 10000.000 0.000 0.703
66 198.00 1200.01 114 151 2.000 10000.000 0.000 0.703
67 201.00 1200.01 118 133 2.000 10000.000 0.000 0.703
68 204.00 1200.01 132 106 2.000 10000.000 0.000 0.703
69 207.00 1200.01 92 83 2.000 10000.000 0.000 0.703
70 210.00 1200.01 80 107 2.000 10000.000 0.000 0.703
71 213.00 1200.01 93 127 2.000 10000.000 0.000 0.703
72 216.00 1200.01 78 104 2.000 10000.000 0.000 0.703
73 219.00 1200.01 72 117 2.000 10000.000 0.000 0.703
74 222.00 1200.01 67 107 2.000 10000.000 0.000 0.703
75 225.00 1200.01 88 91 2.000 10000.000 0.000 0.703
76 228.00 1200.01 78 119 2.000 10000.000 0.000 0.703
77 231.00 1200.01 86 150 2.000 10000.000 0.000 0.703
78 234.00 1200.01 86 127 2.000 10000.000 0.000 0.703
79 237.00 1200.01 79 144 2.000 10000.000 0.000 0.703
80 240.00 1200.01 123 188 2.000 10000.000 0.000 0.703
81 243.00 1200.01 119 221 2.000 10000.000 0.000 0.703
82 246.00 1200.01 154 256 2.000 10000.000 0.000 0.703
83 249.00 1200.01 136 302 2.000 10000.000 0.000 0.703
84 252.00 1200.01 173 348 2.000 10000.000 0.000 0.703
85 255.00 1200.01 168 401 2.000 10000.000 0.000 0.703
86 258.00 1200.01 191 465 2.000 10000.000 0.000 0.703
87 261.00 1200.01 180 420 2.000 10000.000 0.000 0.703
88 264.00 1200.01 199 475 2.000 10000.000 0.000 0.703
89 267.00 1200.01 191 493 2.000 10000.000 0.000 0.703
90 270.00 1200.01 202 512 2.000 10000.000 0.000 0.703
91 273.00 1200.01 210 511 2.000 10000.000 0.000 0.703
92 276.00 1200.01 200 433 2.000 10000.000 0.000 0.703
93 279.00 1200.01 204 422 2.000 10000.000 0.000 0.703
94 282.00 1200.01 188 380 2.000 10000.000 0.000 0.703
95 285.00 1200.01 156 339 2.000 10000.000 0.000 0.703
96 288.00 1200.01 204 322 2.000 10000.000 0.000 0.703
97 291.00 1200.01 159 268 2.000 10000.000 0.000 0.703
98 294.00 1200.01 139 190 2.000 10000.000 0.000 0.703
99 297.00 1200.01 140 148 2.000 10000.000 0.000 0.703
100 300.00 1200.01 92 112 2.000 10000.000 0.000 0.703
