# BinNR microsec tot-time (s)  O-Beam AUX Ampl(V) f(Hz) phase(deg) chi(pos)
0 0.00 1200.01 31 56 2.000 10000.000 0.000 0.901
1 3.00 1200.01 81 129 2.000 10000.000 0.000 0.901
2 6.00 1200.01 76 151 2.000 10000.000 0.000 0.901
3 9.00 1200.01 71 162 2.000 10000.000 0.000 0.901
4 12.00 1200.01 79 183 2.000 10000.000 0.000 0.901
5 15.00 1200.01 66 188 2.000 10000.000 0.000 0.901
6 18.00 1200.01 74 181 2.000 10000.000 0.000 0.901
7 21.00 1200.01 72 178 2.000 10000.000 0.000 0.901
8 24.00 1200.01 74 167 2.000 10000.000 0.000 0.901
9 27.00 1200.01 77 139 2.000 10000.000 0.000 0.901
10 30.00 1200.01 79 115 2.000 10000.000 0.000 0.901
11 33.00 1200.01 86 102 2.000 10000.000 0.000 0.901
12 36.00 1200.01 74 111 2.000 10000.000 0.000 0.901
13 39.00 1200.01 78 115 2.000 10000.000 0.000 0.901
14 42.00 1200.01 81 111 2.000 10000.000 0.000 0.901
15 45.00 1200.01 98 109 2.000 10000.000 0.000 0.901
16 48.00 1200.01 99 131 2.000 10000.000 0.000 0.901
17 51.00 1200.01 101 144 2.000 10000.000 0.000 0.901
18 54.00 1200.01 91 203 2.000 10000.000 0.000 0.901
19 57.00 1200.01 113 218 2.000 10000.000 0.000 0.901
20 60.00 1200.01 132 237 2.000 10000.000 0.000 0.901
21 63.00 1200.01 134 238 2.000 10000.000 0.000 0.901
22 66.00 1200.01 133 269 2.000 10000.000 0.000 0.901
23 69.00 1200.01 114 264 2.000 10000.000 0.000 0.901
24 72.00 1200.01 139 239 2.000 10000.000 0.000 0.901
25 75.00 1200.01 136 234 2.000 10000.000 0.000 0.901
26 78.00 1200.01 135 195 2.000 10000.000 0.000 0.901
27 81.00 1200.01 107 180 2.000 10000.000 0.000 0.901
28 84.00 1200.01 116 177 2.000 10000.000 0.000 0.901
29 87.00 1200.01 119 128 2.000 10000.000 0.000 0.901
30 90.00 1200.01 82 108 2.000 10000.000 0.000 0.901
31 93.00 1200.01 82 107 2.000 10000.000 0.000 0.901
32 96.00 1200.01 79 118 2.000 10000.000 0.000 0.901
33 99.00 1200.01 71 95 2.000 10000.000 0.000 0.901
34 102.00 1200.01 83 114 2.000 10000.000 0.000 0.901
35 105.00 1200.01 66 146 2.000 10000.000 0.000 0.901
36 108.00 1200.01 71 158 2.000 10000.000 0.000 0.901
37 111.00 1200.01 75 193 2.000 10000.000 0.000 0.901
38 114.00 1200.01 70 194 2.000 10000.000 0.000 0.901
39 117.00 1200.01 80 191 2.000 10000.000 0.000 0.901
40 120.00 1200.01 56 221 2.000 10000.000 0.000 0.901
41 123.00 1200.01 64 190 2.000 10000.000 0.000 0.901
42 126.00 1200.01 72 196 2.000 10000.000 0.000 0.901
43 129.00 1200.01 61 130 2.000 10000.000 0.000 0.901
44 132.00 1200.01 76 138 2.000 10000.000 0.000 0.901
45 135.00 1200.01 72 123 2.000 10000.000 0.000 0.901
46 138.00 1200.01 81 103 2.000 10000.000 0.000 0.901
47 141.00 1200.01 80 96 2.000 10000.000 0.000 0.901
48 144.00 1200.01 85 111 2.000 10000.000 0.000 0.901
49 147.00 1200.01 94 122 2.000 10000.000 0.000 0.901
50 150.00 1200.01 91 135 2.000 10000.000 0.000 0.901
51 153.00 1200.01 100 193 2.000 10000.000 0.000 0.901
52 156.00 1200.01 111 199 2.000 10000.000 0.000 0.901
53 159.00 1200.01 120 221 2.000 10000.000 0.000 0.901
54 162.00 1200.01 135 259 2.000 10000.000 0.000 0.901
55 165.00 1200.01 139 265 2.000 10000.000 0.000 0.901
56 168.00 1200.01 141 248 2.000 10000.000 0.000 0.901
57 171.00 1200.01 146 223 2.000 10000.000 0.000 0.901
58 174.00 1200.01 152 258 2.000 10000.000 0.000 0.901
59 177.00 1200.01 135 206 2.000 10000.000 0.000 0.901
60 180.00 1200.01 118 181 2.000 10000.000 0.000 0.901
61 183.00 1200.01 109 155 2.000 10000.000 0.000 0.901
62 186.00 1200.01 103 142 2.000 10000.000 0.000 0.901
63 189.00 1200.01 98 112 2.000 10000.000 0.000 0.901
64 192.00 1200.01 86 81 2.000 10000.000 0.000 0.901
65 195.00 1200.01 82 92 2.000 10000.000 0.000 0.901
66 198.00 1200.01 81 84 2.000 10000.000 0.000 0.901
67 201.00 1200.01 55 111 2.000 10000.000 0.000 0.901
68 204.00 1200.01 58 121 2.000 10000.000 0.000 0.901
69 207.00 1200.01 78 149 2.000 10000.000 0.000 0.901
70 210.00 1200.01 70 170 2.000 10000.000 0.000 0.901
71 213.00 1200.01 74 180 2.000 10000.000 0.000 0.901
72 216.00 1200.01 75 197 2.000 10000.000 0.000 0.901
73 219.00 1200.01 71 198 2.000 10000.000 0.000 0.901
74 222.00 1200.01 72 198 2.000 10000.000 0.000 0.901
75 225.00 1200.01 75 159 2.000 10000.000 0.000 0.901
76 228.00 1200.01 86 172 2.000 10000.000 0.000 0.901
77 231.00 1200.01 68 158 2.000 10000.000 0.000 0.901
78 234.00 1200.01 81 119 2.000 10000.000 0.000 0.901
79 237.00 1200.01 66 102 2.000 10000.000 0.000 0.901
80 240.00 1200.01 92 106 2.000 10000.000 0.000 0.901
81 243.00 1200.01 68 105 2.000 10000.000 0.000 0.901
82 246.00 1200.01 87 121 2.000 10000.000 0.000 0.901
83 249.00 1200.01 94 148 2.000 10000.000 0.000 0.901
84 252.00 1200.01 98 149 2.000 10000.000 0.000 0.901
85 255.00 1200.01 108 190 2.000 10000.000 0.000 0.901
86 258.00 1200.01 106 194 2.000 10000.000 0.000 0.901
87 261.00 1200.01 144 249 2.000 10000.000 0.000 0.901
88 264.00 1200.01 126 237 2.000 10000.000 0.000 0.901
89 267.00 1200.01 116 247 2.000 10000.000 0.000 0.901
90 270.00 1200.01 132 239 2.000 10000.000 0.000 0.901
91 273.00 1200.01 139 244 2.000 10000.000 0.000 0.901
92 276.00 1200.01 141 240 2.000 10000.000 0.000 0.901
93 279.00 1200.01 127 205 2.000 10000.000 0.000 0.901
94 282.00 1200.01 146 185 2.000 10000.000 0.000 0.901
95 285.00 1200.01 117 155 2.000 10000.000 0.000 0.901
96 288.00 1200.01 101 112 2.000 10000.000 0.000 0.901
97 291.00 1200.01 90 106 2.000 10000.000 0.000 0.901
98 294.00 1200.01 108 75 2.000 10000.000 0.000 0.901
99 297.00 1200.01 68 109 2.000 10000.000 0.000 0.901
100 300.00 1200.01 67 100 2.000 10000.000 0.000 0.901
