Start Motor Scan on 04/02/2025@10:47 | Measure Time (sec):60| Bg detector (cnts/sec):0.000000| Bg monitor (cnts/sec):0.00000060| Mon.lim.  (cnts/sec):  0
Ioff (cnts/sec): 0.103026   ErrIoff: 0.000826  Pp.d.Pa:  0.000000  ErrPp.d.Pal:  0.000000	Pol: 0.000000	ErrPol: 0.000000
Power Supply 1 (mA): OFF| Power Supply 2 (mA): OFF| Power Supply 3 (mA): OFF| Power Supply 4 (mA): OFF| Power Supply 5 (mA): OFF| Power Supply 6 (mA): OFF   
Position (Steps)Detector (cnts):   Monitor_Max,Min (cnts/sec):   Norm(1/s):   err(1/s) :     FlippRatio:     ErrFlippRatio        
3600000.00000000	6736.00000000	389.00000000	315.00000000	0.31266246	0.00436467	0.32951308	0.00530518
3400000.00000000	6617.00000000	412.00000000	309.00000000	0.30968316	0.00435683	0.33268316	0.00538768
3200000.00000000	6628.00000000	404.00000000	304.00000000	0.30553635	0.00428811	0.33719841	0.00545086
3000000.00000000	6258.00000000	416.00000000	304.00000000	0.28613232	0.00410197	0.36006547	0.00591491
2800000.00000000	6291.00000000	411.00000000	302.00000000	0.28930789	0.00414170	0.35611324	0.00584377
2600000.00000000	6067.00000000	416.00000000	315.00000000	0.27961102	0.00406075	0.36846319	0.00611307
2400000.00000000	5928.00000000	404.00000000	308.00000000	0.27471153	0.00402836	0.37503476	0.00626848
2200000.00000000	5947.00000000	418.00000000	312.00000000	0.27437140	0.00401641	0.37549968	0.00626789
2000000.00000000	5792.00000000	406.00000000	320.00000000	0.26879525	0.00397835	0.38328940	0.00645247
1800000.00000000	5768.00000000	407.00000000	316.00000000	0.26376440	0.00390424	0.39059998	0.00657599
1600000.00000000	5888.00000000	414.00000000	324.00000000	0.26770938	0.00392816	0.38484409	0.00643556
1400000.00000000	6159.00000000	408.00000000	317.00000000	0.27980193	0.00403336	0.36821180	0.00607418
1200000.00000000	6245.00000000	408.00000000	322.00000000	0.28645475	0.00411137	0.35966019	0.00591350
1000000.00000000	6439.00000000	407.00000000	320.00000000	0.29790876	0.00422957	0.34583196	0.00563938
800000.00000000	6534.00000000	415.00000000	328.00000000	0.29740555	0.00419080	0.34641710	0.00561688
600000.00000000	6576.00000000	419.00000000	329.00000000	0.30190065	0.00424788	0.34125918	0.00552710
400000.00000000	6583.00000000	413.00000000	318.00000000	0.30082713	0.00422878	0.34247699	0.00554287
200000.00000000	6452.00000000	415.00000000	309.00000000	0.29254137	0.00414059	0.35217709	0.00572947
0.00000000	6291.00000000	424.00000000	313.00000000	0.28601955	0.00408940	0.36020744	0.00590522
