Start Motor Scan on 03/02/2025@15:55 | Measure Time (sec):60| Bg detector (cnts/sec):0.000000| Bg monitor (cnts/sec):0.00000060| Mon.lim.  (cnts/sec):  0
Ioff (cnts/sec): 0.103026   ErrIoff: 0.000826  Pp.d.Pa:  0.000000  ErrPp.d.Pal:  0.000000	Pol: 0.000000	ErrPol: 0.000000
Power Supply 1 (mA): OFF| Power Supply 2 (mA): OFF| Power Supply 3 (mA): OFF| Power Supply 4 (mA): OFF| Power Supply 5 (mA): OFF| Power Supply 6 (mA): OFF   
Position (Steps)Detector (cnts):   Monitor_Max,Min (cnts/sec):   Norm(1/s):   err(1/s) :     FlippRatio:     ErrFlippRatio        
3600000.00000000	5600.00000000	420.00000000	325.00000000	0.24535577	0.00365889	0.41990605	0.00711024
3400000.00000000	5922.00000000	429.00000000	349.00000000	0.25794930	0.00375951	0.39940551	0.00664453
3200000.00000000	6284.00000000	424.00000000	338.00000000	0.27273122	0.00388137	0.37775789	0.00617116
3000000.00000000	6539.00000000	433.00000000	348.00000000	0.28226712	0.00395270	0.36499601	0.00589030
2800000.00000000	6694.00000000	449.00000000	338.00000000	0.28665639	0.00397420	0.35940720	0.00575668
2600000.00000000	7135.00000000	423.00000000	351.00000000	0.30896809	0.00418486	0.33345311	0.00524907
2400000.00000000	7169.00000000	429.00000000	342.00000000	0.31119503	0.00420859	0.33106688	0.00520562
2200000.00000000	6951.00000000	443.00000000	331.00000000	0.30196794	0.00413273	0.34118314	0.00541230
2000000.00000000	6546.00000000	452.00000000	324.00000000	0.27980338	0.00391234	0.36820989	0.00593547
1800000.00000000	6449.00000000	413.00000000	332.00000000	0.28209615	0.00397751	0.36521722	0.00592445
1600000.00000000	6059.00000000	426.00000000	339.00000000	0.26240797	0.00378771	0.39261906	0.00648346
1400000.00000000	5690.00000000	441.00000000	344.00000000	0.24654448	0.00364916	0.41788148	0.00703501
1200000.00000000	5377.00000000	421.00000000	330.00000000	0.23213746	0.00351402	0.44381622	0.00760324
1000000.00000000	5342.00000000	434.00000000	346.00000000	0.23089557	0.00350489	0.44620331	0.00766064
800000.00000000	5284.00000000	419.00000000	335.00000000	0.22967921	0.00350377	0.44856636	0.00773119
600000.00000000	5360.00000000	433.00000000	344.00000000	0.23117398	0.00350361	0.44566594	0.00764204
400000.00000000	5847.00000000	434.00000000	327.00000000	0.25330330	0.00370854	0.40673126	0.00678996
200000.00000000	6124.00000000	427.00000000	347.00000000	0.26384042	0.00379027	0.39048744	0.00642484
0.00000000	6400.00000000	434.00000000	335.00000000	0.27470169	0.00387682	0.37504818	0.00608817
