Start Motor Scan on 03/02/2025@15:21 | Measure Time (sec):60| Bg detector (cnts/sec):0.000000| Bg monitor (cnts/sec):0.00000060| Mon.lim.  (cnts/sec):  0
Ioff (cnts/sec): 0.103026   ErrIoff: 0.000826  Pp.d.Pa:  0.000000  ErrPp.d.Pal:  0.000000	Pol: 0.000000	ErrPol: 0.000000
Power Supply 1 (mA): OFF| Power Supply 2 (mA): OFF| Power Supply 3 (mA): OFF| Power Supply 4 (mA): OFF| Power Supply 5 (mA): OFF| Power Supply 6 (mA): OFF   
Position (Steps)Detector (cnts):   Monitor_Max,Min (cnts/sec):   Norm(1/s):   err(1/s) :     FlippRatio:     ErrFlippRatio        
3600000.00000000	5874.00000000	429.00000000	342.00000000	0.25403278	0.00371174	0.40556329	0.00675999
3400000.00000000	5982.00000000	422.00000000	332.00000000	0.26059682	0.00378298	0.39534776	0.00655694
3200000.00000000	5943.00000000	420.00000000	324.00000000	0.26179463	0.00381463	0.39353889	0.00654571
3000000.00000000	5902.00000000	427.00000000	329.00000000	0.25765050	0.00376107	0.39986870	0.00666028
2800000.00000000	5957.00000000	448.00000000	311.00000000	0.25838213	0.00375539	0.39873644	0.00661930
2600000.00000000	5816.00000000	431.00000000	346.00000000	0.25243056	0.00370430	0.40813748	0.00682556
2400000.00000000	6150.00000000	423.00000000	335.00000000	0.27109230	0.00389734	0.38004166	0.00625651
2200000.00000000	6028.00000000	431.00000000	331.00000000	0.26063646	0.00376915	0.39528764	0.00653683
2000000.00000000	6066.00000000	427.00000000	344.00000000	0.26271113	0.00379035	0.39216599	0.00647372
1800000.00000000	5980.00000000	433.00000000	326.00000000	0.25936849	0.00376394	0.39722006	0.00658638
1600000.00000000	6158.00000000	428.00000000	300.00000000	0.26455299	0.00379107	0.38943566	0.00639541
1400000.00000000	6081.00000000	458.00000000	348.00000000	0.26158214	0.00376772	0.39385858	0.00649331
1200000.00000000	6170.00000000	431.00000000	337.00000000	0.27138773	0.00389571	0.37962796	0.00624253
1000000.00000000	6025.00000000	432.00000000	342.00000000	0.26351470	0.00381607	0.39097011	0.00647231
800000.00000000	6093.00000000	432.00000000	338.00000000	0.26234661	0.00377615	0.39271089	0.00647102
600000.00000000	6109.00000000	413.00000000	347.00000000	0.26370543	0.00379277	0.39068733	0.00643388
400000.00000000	5969.00000000	460.00000000	350.00000000	0.25808544	0.00374686	0.39919482	0.00662121
200000.00000000	6167.00000000	426.00000000	344.00000000	0.27015069	0.00387701	0.38136630	0.00626995
0.00000000	6234.00000000	431.00000000	347.00000000	0.26960170	0.00384745	0.38214289	0.00625591
