# BinNR microsec tot-time (s)  O-Beam AUX Ampl(V) f(Hz) phase(deg) chi(pos)
0 0.00 1500.03 94 409 0.510 10000.000 0.000 -1.011
1 3.00 1500.03 203 776 0.510 10000.000 0.000 -1.011
2 6.00 1500.03 230 837 0.510 10000.000 0.000 -1.011
3 9.00 1500.03 218 846 0.510 10000.000 0.000 -1.011
4 12.00 1500.03 265 830 0.510 10000.000 0.000 -1.011
5 15.00 1500.03 296 897 0.510 10000.000 0.000 -1.011
6 18.00 1500.03 254 883 0.510 10000.000 0.000 -1.011
7 21.00 1500.03 227 884 0.510 10000.000 0.000 -1.011
8 24.00 1500.03 247 916 0.510 10000.000 0.000 -1.011
9 27.00 1500.03 300 928 0.510 10000.000 0.000 -1.011
10 30.00 1500.03 284 910 0.510 10000.000 0.000 -1.011
11 33.00 1500.03 288 955 0.510 10000.000 0.000 -1.011
12 36.00 1500.03 294 968 0.510 10000.000 0.000 -1.011
13 39.00 1500.03 269 959 0.510 10000.000 0.000 -1.011
14 42.00 1500.03 304 925 0.510 10000.000 0.000 -1.011
15 45.00 1500.03 274 937 0.510 10000.000 0.000 -1.011
16 48.00 1500.03 288 955 0.510 10000.000 0.000 -1.011
17 51.00 1500.03 289 993 0.510 10000.000 0.000 -1.011
18 54.00 1500.03 283 975 0.510 10000.000 0.000 -1.011
19 57.00 1500.03 276 1001 0.510 10000.000 0.000 -1.011
20 60.00 1500.03 279 877 0.510 10000.000 0.000 -1.011
21 63.00 1500.03 271 984 0.510 10000.000 0.000 -1.011
22 66.00 1500.03 251 890 0.510 10000.000 0.000 -1.011
23 69.00 1500.03 243 982 0.510 10000.000 0.000 -1.011
24 72.00 1500.03 279 897 0.510 10000.000 0.000 -1.011
25 75.00 1500.03 237 865 0.510 10000.000 0.000 -1.011
26 78.00 1500.03 209 860 0.510 10000.000 0.000 -1.011
27 81.00 1500.03 240 865 0.510 10000.000 0.000 -1.011
28 84.00 1500.03 196 798 0.510 10000.000 0.000 -1.011
29 87.00 1500.03 231 823 0.510 10000.000 0.000 -1.011
30 90.00 1500.03 250 776 0.510 10000.000 0.000 -1.011
31 93.00 1500.03 246 810 0.510 10000.000 0.000 -1.011
32 96.00 1500.03 235 727 0.510 10000.000 0.000 -1.011
33 99.00 1500.03 223 788 0.510 10000.000 0.000 -1.011
34 102.00 1500.03 246 826 0.510 10000.000 0.000 -1.011
35 105.00 1500.03 221 787 0.510 10000.000 0.000 -1.011
36 108.00 1500.03 256 838 0.510 10000.000 0.000 -1.011
37 111.00 1500.03 240 881 0.510 10000.000 0.000 -1.011
38 114.00 1500.03 217 872 0.510 10000.000 0.000 -1.011
39 117.00 1500.03 257 800 0.510 10000.000 0.000 -1.011
40 120.00 1500.03 254 853 0.510 10000.000 0.000 -1.011
41 123.00 1500.03 262 953 0.510 10000.000 0.000 -1.011
42 126.00 1500.03 250 899 0.510 10000.000 0.000 -1.011
43 129.00 1500.03 277 945 0.510 10000.000 0.000 -1.011
44 132.00 1500.03 300 973 0.510 10000.000 0.000 -1.011
45 135.00 1500.03 262 968 0.510 10000.000 0.000 -1.011
46 138.00 1500.03 290 989 0.510 10000.000 0.000 -1.011
47 141.00 1500.03 268 994 0.510 10000.000 0.000 -1.011
48 144.00 1500.03 306 982 0.510 10000.000 0.000 -1.011
49 147.00 1500.03 273 1047 0.510 10000.000 0.000 -1.011
50 150.00 1500.03 293 1001 0.510 10000.000 0.000 -1.011
51 153.00 1500.03 290 948 0.510 10000.000 0.000 -1.011
52 156.00 1500.03 265 935 0.510 10000.000 0.000 -1.011
53 159.00 1500.03 263 988 0.510 10000.000 0.000 -1.011
54 162.00 1500.03 281 965 0.510 10000.000 0.000 -1.011
55 165.00 1500.03 259 889 0.510 10000.000 0.000 -1.011
56 168.00 1500.03 263 870 0.510 10000.000 0.000 -1.011
57 171.00 1500.03 264 906 0.510 10000.000 0.000 -1.011
58 174.00 1500.03 247 906 0.510 10000.000 0.000 -1.011
59 177.00 1500.03 245 854 0.510 10000.000 0.000 -1.011
60 180.00 1500.03 233 840 0.510 10000.000 0.000 -1.011
61 183.00 1500.03 236 800 0.510 10000.000 0.000 -1.011
62 186.00 1500.03 243 831 0.510 10000.000 0.000 -1.011
63 189.00 1500.03 213 811 0.510 10000.000 0.000 -1.011
64 192.00 1500.03 239 812 0.510 10000.000 0.000 -1.011
65 195.00 1500.03 199 823 0.510 10000.000 0.000 -1.011
66 198.00 1500.03 210 792 0.510 10000.000 0.000 -1.011
67 201.00 1500.03 227 810 0.510 10000.000 0.000 -1.011
68 204.00 1500.03 220 808 0.510 10000.000 0.000 -1.011
69 207.00 1500.03 235 792 0.510 10000.000 0.000 -1.011
70 210.00 1500.03 257 857 0.510 10000.000 0.000 -1.011
71 213.00 1500.03 257 889 0.510 10000.000 0.000 -1.011
72 216.00 1500.03 249 832 0.510 10000.000 0.000 -1.011
73 219.00 1500.03 255 864 0.510 10000.000 0.000 -1.011
74 222.00 1500.03 269 878 0.510 10000.000 0.000 -1.011
75 225.00 1500.03 228 884 0.510 10000.000 0.000 -1.011
76 228.00 1500.03 280 921 0.510 10000.000 0.000 -1.011
77 231.00 1500.03 283 927 0.510 10000.000 0.000 -1.011
78 234.00 1500.03 279 992 0.510 10000.000 0.000 -1.011
79 237.00 1500.03 271 919 0.510 10000.000 0.000 -1.011
80 240.00 1500.03 285 1000 0.510 10000.000 0.000 -1.011
81 243.00 1500.03 306 1073 0.510 10000.000 0.000 -1.011
82 246.00 1500.03 269 996 0.510 10000.000 0.000 -1.011
83 249.00 1500.03 309 972 0.510 10000.000 0.000 -1.011
84 252.00 1500.03 271 979 0.510 10000.000 0.000 -1.011
85 255.00 1500.03 256 968 0.510 10000.000 0.000 -1.011
86 258.00 1500.03 248 995 0.510 10000.000 0.000 -1.011
87 261.00 1500.03 267 959 0.510 10000.000 0.000 -1.011
88 264.00 1500.03 269 957 0.510 10000.000 0.000 -1.011
89 267.00 1500.03 259 909 0.510 10000.000 0.000 -1.011
90 270.00 1500.03 236 889 0.510 10000.000 0.000 -1.011
91 273.00 1500.03 248 853 0.510 10000.000 0.000 -1.011
92 276.00 1500.03 250 853 0.510 10000.000 0.000 -1.011
93 279.00 1500.03 240 868 0.510 10000.000 0.000 -1.011
94 282.00 1500.03 246 892 0.510 10000.000 0.000 -1.011
95 285.00 1500.03 229 797 0.510 10000.000 0.000 -1.011
96 288.00 1500.03 240 757 0.510 10000.000 0.000 -1.011
97 291.00 1500.03 218 845 0.510 10000.000 0.000 -1.011
98 294.00 1500.03 220 818 0.510 10000.000 0.000 -1.011
99 297.00 1500.03 219 815 0.510 10000.000 0.000 -1.011
100 300.00 1500.03 241 779 0.510 10000.000 0.000 -1.011
101 303.00 1500.03 216 773 0.510 10000.000 0.000 -1.011
102 306.00 1500.03 233 804 0.510 10000.000 0.000 -1.011
103 309.00 1500.03 272 768 0.510 10000.000 0.000 -1.011
104 312.00 1500.03 266 810 0.510 10000.000 0.000 -1.011
105 315.00 1500.03 256 848 0.510 10000.000 0.000 -1.011
106 318.00 1500.03 246 917 0.510 10000.000 0.000 -1.011
107 321.00 1500.03 257 899 0.510 10000.000 0.000 -1.011
108 324.00 1500.03 245 932 0.510 10000.000 0.000 -1.011
109 327.00 1500.03 278 883 0.510 10000.000 0.000 -1.011
110 330.00 1500.03 299 940 0.510 10000.000 0.000 -1.011
111 333.00 1500.03 264 931 0.510 10000.000 0.000 -1.011
112 336.00 1500.03 271 962 0.510 10000.000 0.000 -1.011
113 339.00 1500.03 268 947 0.510 10000.000 0.000 -1.011
114 342.00 1500.03 284 999 0.510 10000.000 0.000 -1.011
115 345.00 1500.03 275 969 0.510 10000.000 0.000 -1.011
116 348.00 1500.03 285 964 0.510 10000.000 0.000 -1.011
117 351.00 1500.03 279 955 0.510 10000.000 0.000 -1.011
118 354.00 1500.03 280 955 0.510 10000.000 0.000 -1.011
119 357.00 1500.03 276 932 0.510 10000.000 0.000 -1.011
120 360.00 1500.03 273 948 0.510 10000.000 0.000 -1.011
121 363.00 1500.03 298 980 0.510 10000.000 0.000 -1.011
122 366.00 1500.03 265 988 0.510 10000.000 0.000 -1.011
123 369.00 1500.03 269 874 0.510 10000.000 0.000 -1.011
124 372.00 1500.03 246 892 0.510 10000.000 0.000 -1.011
125 375.00 1500.03 248 884 0.510 10000.000 0.000 -1.011
126 378.00 1500.03 235 847 0.510 10000.000 0.000 -1.011
127 381.00 1500.03 227 769 0.510 10000.000 0.000 -1.011
128 384.00 1500.03 238 859 0.510 10000.000 0.000 -1.011
129 387.00 1500.03 206 778 0.510 10000.000 0.000 -1.011
130 390.00 1500.03 227 732 0.510 10000.000 0.000 -1.011
131 393.00 1500.03 234 734 0.510 10000.000 0.000 -1.011
132 396.00 1500.03 245 776 0.510 10000.000 0.000 -1.011
133 399.00 1500.03 214 752 0.510 10000.000 0.000 -1.011
134 402.00 1500.03 262 770 0.510 10000.000 0.000 -1.011
