# BinNR microsec tot-time (s)  O-Beam AUX Ampl(V) f(Hz) phase(deg) chi(pos)
0 0.00 1500.03 183 547 0.510 10000.000 0.000 1.505
1 3.00 1500.03 359 1140 0.510 10000.000 0.000 1.505
2 6.00 1500.03 357 1141 0.510 10000.000 0.000 1.505
3 9.00 1500.03 392 1126 0.510 10000.000 0.000 1.505
4 12.00 1500.03 397 1183 0.510 10000.000 0.000 1.505
5 15.00 1500.03 365 1144 0.510 10000.000 0.000 1.505
6 18.00 1500.03 361 1166 0.510 10000.000 0.000 1.505
7 21.00 1500.03 383 1153 0.510 10000.000 0.000 1.505
8 24.00 1500.03 385 1196 0.510 10000.000 0.000 1.505
9 27.00 1500.03 352 1131 0.510 10000.000 0.000 1.505
10 30.00 1500.03 391 1185 0.510 10000.000 0.000 1.505
11 33.00 1500.03 406 1140 0.510 10000.000 0.000 1.505
12 36.00 1500.03 427 1136 0.510 10000.000 0.000 1.505
13 39.00 1500.03 397 1144 0.510 10000.000 0.000 1.505
14 42.00 1500.03 403 1204 0.510 10000.000 0.000 1.505
15 45.00 1500.03 383 1160 0.510 10000.000 0.000 1.505
16 48.00 1500.03 367 1200 0.510 10000.000 0.000 1.505
17 51.00 1500.03 377 1198 0.510 10000.000 0.000 1.505
18 54.00 1500.03 414 1081 0.510 10000.000 0.000 1.505
19 57.00 1500.03 384 1117 0.510 10000.000 0.000 1.505
20 60.00 1500.03 430 1164 0.510 10000.000 0.000 1.505
21 63.00 1500.03 363 1198 0.510 10000.000 0.000 1.505
22 66.00 1500.03 417 1147 0.510 10000.000 0.000 1.505
23 69.00 1500.03 386 1166 0.510 10000.000 0.000 1.505
24 72.00 1500.03 392 1122 0.510 10000.000 0.000 1.505
25 75.00 1500.03 372 1115 0.510 10000.000 0.000 1.505
26 78.00 1500.03 380 1123 0.510 10000.000 0.000 1.505
27 81.00 1500.03 362 1132 0.510 10000.000 0.000 1.505
28 84.00 1500.03 372 1110 0.510 10000.000 0.000 1.505
29 87.00 1500.03 354 1161 0.510 10000.000 0.000 1.505
30 90.00 1500.03 352 1091 0.510 10000.000 0.000 1.505
31 93.00 1500.03 362 1053 0.510 10000.000 0.000 1.505
32 96.00 1500.03 409 1118 0.510 10000.000 0.000 1.505
33 99.00 1500.03 381 1144 0.510 10000.000 0.000 1.505
34 102.00 1500.03 363 1193 0.510 10000.000 0.000 1.505
35 105.00 1500.03 385 1109 0.510 10000.000 0.000 1.505
36 108.00 1500.03 359 1123 0.510 10000.000 0.000 1.505
37 111.00 1500.03 363 1077 0.510 10000.000 0.000 1.505
38 114.00 1500.03 367 1123 0.510 10000.000 0.000 1.505
39 117.00 1500.03 374 1184 0.510 10000.000 0.000 1.505
40 120.00 1500.03 358 1148 0.510 10000.000 0.000 1.505
41 123.00 1500.03 378 1169 0.510 10000.000 0.000 1.505
42 126.00 1500.03 394 1119 0.510 10000.000 0.000 1.505
43 129.00 1500.03 354 1147 0.510 10000.000 0.000 1.505
44 132.00 1500.03 376 1206 0.510 10000.000 0.000 1.505
45 135.00 1500.03 385 1129 0.510 10000.000 0.000 1.505
46 138.00 1500.03 403 1241 0.510 10000.000 0.000 1.505
47 141.00 1500.03 374 1134 0.510 10000.000 0.000 1.505
48 144.00 1500.03 401 1138 0.510 10000.000 0.000 1.505
49 147.00 1500.03 390 1122 0.510 10000.000 0.000 1.505
50 150.00 1500.03 400 1199 0.510 10000.000 0.000 1.505
51 153.00 1500.03 419 1143 0.510 10000.000 0.000 1.505
52 156.00 1500.03 412 1163 0.510 10000.000 0.000 1.505
53 159.00 1500.03 393 1151 0.510 10000.000 0.000 1.505
54 162.00 1500.03 376 1152 0.510 10000.000 0.000 1.505
55 165.00 1500.03 376 1182 0.510 10000.000 0.000 1.505
56 168.00 1500.03 366 1129 0.510 10000.000 0.000 1.505
57 171.00 1500.03 365 1170 0.510 10000.000 0.000 1.505
58 174.00 1500.03 368 1142 0.510 10000.000 0.000 1.505
59 177.00 1500.03 384 1111 0.510 10000.000 0.000 1.505
60 180.00 1500.03 351 1149 0.510 10000.000 0.000 1.505
61 183.00 1500.03 352 1177 0.510 10000.000 0.000 1.505
62 186.00 1500.03 387 1162 0.510 10000.000 0.000 1.505
63 189.00 1500.03 370 1142 0.510 10000.000 0.000 1.505
64 192.00 1500.03 391 1184 0.510 10000.000 0.000 1.505
65 195.00 1500.03 349 1178 0.510 10000.000 0.000 1.505
66 198.00 1500.03 355 1118 0.510 10000.000 0.000 1.505
67 201.00 1500.03 380 1086 0.510 10000.000 0.000 1.505
68 204.00 1500.03 398 1108 0.510 10000.000 0.000 1.505
69 207.00 1500.03 333 1058 0.510 10000.000 0.000 1.505
70 210.00 1500.03 384 1106 0.510 10000.000 0.000 1.505
71 213.00 1500.03 361 1167 0.510 10000.000 0.000 1.505
72 216.00 1500.03 401 1194 0.510 10000.000 0.000 1.505
73 219.00 1500.03 375 1144 0.510 10000.000 0.000 1.505
74 222.00 1500.03 367 1199 0.510 10000.000 0.000 1.505
75 225.00 1500.03 397 1118 0.510 10000.000 0.000 1.505
76 228.00 1500.03 390 1178 0.510 10000.000 0.000 1.505
77 231.00 1500.03 380 1167 0.510 10000.000 0.000 1.505
78 234.00 1500.03 351 1156 0.510 10000.000 0.000 1.505
79 237.00 1500.03 394 1149 0.510 10000.000 0.000 1.505
80 240.00 1500.03 392 1165 0.510 10000.000 0.000 1.505
81 243.00 1500.03 419 1137 0.510 10000.000 0.000 1.505
82 246.00 1500.03 408 1170 0.510 10000.000 0.000 1.505
83 249.00 1500.03 365 1086 0.510 10000.000 0.000 1.505
84 252.00 1500.03 390 1156 0.510 10000.000 0.000 1.505
85 255.00 1500.03 431 1160 0.510 10000.000 0.000 1.505
86 258.00 1500.03 367 1160 0.510 10000.000 0.000 1.505
87 261.00 1500.03 393 1143 0.510 10000.000 0.000 1.505
88 264.00 1500.03 385 1212 0.510 10000.000 0.000 1.505
89 267.00 1500.03 373 1193 0.510 10000.000 0.000 1.505
90 270.00 1500.03 389 1191 0.510 10000.000 0.000 1.505
91 273.00 1500.03 393 1122 0.510 10000.000 0.000 1.505
92 276.00 1500.03 393 1111 0.510 10000.000 0.000 1.505
93 279.00 1500.03 365 1211 0.510 10000.000 0.000 1.505
94 282.00 1500.03 393 1096 0.510 10000.000 0.000 1.505
95 285.00 1500.03 360 1065 0.510 10000.000 0.000 1.505
96 288.00 1500.03 350 1154 0.510 10000.000 0.000 1.505
97 291.00 1500.03 343 1061 0.510 10000.000 0.000 1.505
98 294.00 1500.03 374 1107 0.510 10000.000 0.000 1.505
99 297.00 1500.03 349 1144 0.510 10000.000 0.000 1.505
100 300.00 1500.03 379 1075 0.510 10000.000 0.000 1.505
101 303.00 1500.03 356 1084 0.510 10000.000 0.000 1.505
102 306.00 1500.03 386 1199 0.510 10000.000 0.000 1.505
103 309.00 1500.03 368 1121 0.510 10000.000 0.000 1.505
104 312.00 1500.03 418 1111 0.510 10000.000 0.000 1.505
105 315.00 1500.03 390 1146 0.510 10000.000 0.000 1.505
106 318.00 1500.03 402 1118 0.510 10000.000 0.000 1.505
107 321.00 1500.03 383 1141 0.510 10000.000 0.000 1.505
108 324.00 1500.03 374 1134 0.510 10000.000 0.000 1.505
109 327.00 1500.03 370 1139 0.510 10000.000 0.000 1.505
110 330.00 1500.03 370 1148 0.510 10000.000 0.000 1.505
111 333.00 1500.03 388 1190 0.510 10000.000 0.000 1.505
112 336.00 1500.03 409 1200 0.510 10000.000 0.000 1.505
113 339.00 1500.03 393 1177 0.510 10000.000 0.000 1.505
114 342.00 1500.03 372 1199 0.510 10000.000 0.000 1.505
115 345.00 1500.03 420 1097 0.510 10000.000 0.000 1.505
116 348.00 1500.03 369 1189 0.510 10000.000 0.000 1.505
117 351.00 1500.03 367 1123 0.510 10000.000 0.000 1.505
118 354.00 1500.03 391 1099 0.510 10000.000 0.000 1.505
119 357.00 1500.03 355 1144 0.510 10000.000 0.000 1.505
120 360.00 1500.03 376 1214 0.510 10000.000 0.000 1.505
121 363.00 1500.03 368 1149 0.510 10000.000 0.000 1.505
122 366.00 1500.03 395 1092 0.510 10000.000 0.000 1.505
123 369.00 1500.03 406 1120 0.510 10000.000 0.000 1.505
124 372.00 1500.03 377 1142 0.510 10000.000 0.000 1.505
125 375.00 1500.03 363 1080 0.510 10000.000 0.000 1.505
126 378.00 1500.03 387 1089 0.510 10000.000 0.000 1.505
127 381.00 1500.03 336 1136 0.510 10000.000 0.000 1.505
128 384.00 1500.03 392 1155 0.510 10000.000 0.000 1.505
129 387.00 1500.03 369 1084 0.510 10000.000 0.000 1.505
130 390.00 1500.03 390 1175 0.510 10000.000 0.000 1.505
131 393.00 1500.03 373 1129 0.510 10000.000 0.000 1.505
132 396.00 1500.03 358 1084 0.510 10000.000 0.000 1.505
133 399.00 1500.03 363 1115 0.510 10000.000 0.000 1.505
134 402.00 1500.03 378 1117 0.510 10000.000 0.000 1.505
