# BinNR microsec tot-time (s)  O-Beam AUX Ampl(V) f(Hz) phase(deg) chi(pos)
0 0.00 1500.03 156 544 0.510 10000.000 0.000 -0.835
1 3.00 1500.03 314 1051 0.510 10000.000 0.000 -0.835
2 6.00 1500.03 320 1102 0.510 10000.000 0.000 -0.835
3 9.00 1500.03 310 1123 0.510 10000.000 0.000 -0.835
4 12.00 1500.03 339 1155 0.510 10000.000 0.000 -0.835
5 15.00 1500.03 372 1123 0.510 10000.000 0.000 -0.835
6 18.00 1500.03 317 1155 0.510 10000.000 0.000 -0.835
7 21.00 1500.03 302 1144 0.510 10000.000 0.000 -0.835
8 24.00 1500.03 324 1197 0.510 10000.000 0.000 -0.835
9 27.00 1500.03 327 1171 0.510 10000.000 0.000 -0.835
10 30.00 1500.03 359 1199 0.510 10000.000 0.000 -0.835
11 33.00 1500.03 339 1277 0.510 10000.000 0.000 -0.835
12 36.00 1500.03 380 1189 0.510 10000.000 0.000 -0.835
13 39.00 1500.03 366 1189 0.510 10000.000 0.000 -0.835
14 42.00 1500.03 398 1207 0.510 10000.000 0.000 -0.835
15 45.00 1500.03 369 1194 0.510 10000.000 0.000 -0.835
16 48.00 1500.03 372 1240 0.510 10000.000 0.000 -0.835
17 51.00 1500.03 367 1168 0.510 10000.000 0.000 -0.835
18 54.00 1500.03 340 1179 0.510 10000.000 0.000 -0.835
19 57.00 1500.03 348 1163 0.510 10000.000 0.000 -0.835
20 60.00 1500.03 366 1197 0.510 10000.000 0.000 -0.835
21 63.00 1500.03 328 1141 0.510 10000.000 0.000 -0.835
22 66.00 1500.03 383 1155 0.510 10000.000 0.000 -0.835
23 69.00 1500.03 324 1161 0.510 10000.000 0.000 -0.835
24 72.00 1500.03 336 1132 0.510 10000.000 0.000 -0.835
25 75.00 1500.03 309 1124 0.510 10000.000 0.000 -0.835
26 78.00 1500.03 313 1062 0.510 10000.000 0.000 -0.835
27 81.00 1500.03 305 1068 0.510 10000.000 0.000 -0.835
28 84.00 1500.03 335 1132 0.510 10000.000 0.000 -0.835
29 87.00 1500.03 344 1025 0.510 10000.000 0.000 -0.835
30 90.00 1500.03 312 1054 0.510 10000.000 0.000 -0.835
31 93.00 1500.03 308 996 0.510 10000.000 0.000 -0.835
32 96.00 1500.03 298 1038 0.510 10000.000 0.000 -0.835
33 99.00 1500.03 315 1043 0.510 10000.000 0.000 -0.835
34 102.00 1500.03 326 1062 0.510 10000.000 0.000 -0.835
35 105.00 1500.03 316 1051 0.510 10000.000 0.000 -0.835
36 108.00 1500.03 322 1066 0.510 10000.000 0.000 -0.835
37 111.00 1500.03 330 1119 0.510 10000.000 0.000 -0.835
38 114.00 1500.03 315 1086 0.510 10000.000 0.000 -0.835
39 117.00 1500.03 342 1089 0.510 10000.000 0.000 -0.835
40 120.00 1500.03 341 1138 0.510 10000.000 0.000 -0.835
41 123.00 1500.03 321 1127 0.510 10000.000 0.000 -0.835
42 126.00 1500.03 362 1139 0.510 10000.000 0.000 -0.835
43 129.00 1500.03 351 1219 0.510 10000.000 0.000 -0.835
44 132.00 1500.03 349 1185 0.510 10000.000 0.000 -0.835
45 135.00 1500.03 352 1143 0.510 10000.000 0.000 -0.835
46 138.00 1500.03 375 1153 0.510 10000.000 0.000 -0.835
47 141.00 1500.03 353 1128 0.510 10000.000 0.000 -0.835
48 144.00 1500.03 391 1228 0.510 10000.000 0.000 -0.835
49 147.00 1500.03 358 1247 0.510 10000.000 0.000 -0.835
50 150.00 1500.03 344 1272 0.510 10000.000 0.000 -0.835
51 153.00 1500.03 322 1175 0.510 10000.000 0.000 -0.835
52 156.00 1500.03 352 1191 0.510 10000.000 0.000 -0.835
53 159.00 1500.03 339 1193 0.510 10000.000 0.000 -0.835
54 162.00 1500.03 347 1174 0.510 10000.000 0.000 -0.835
55 165.00 1500.03 330 1108 0.510 10000.000 0.000 -0.835
56 168.00 1500.03 318 1197 0.510 10000.000 0.000 -0.835
57 171.00 1500.03 369 1100 0.510 10000.000 0.000 -0.835
58 174.00 1500.03 328 1074 0.510 10000.000 0.000 -0.835
59 177.00 1500.03 323 1106 0.510 10000.000 0.000 -0.835
60 180.00 1500.03 318 1117 0.510 10000.000 0.000 -0.835
61 183.00 1500.03 349 1033 0.510 10000.000 0.000 -0.835
62 186.00 1500.03 327 1097 0.510 10000.000 0.000 -0.835
63 189.00 1500.03 308 984 0.510 10000.000 0.000 -0.835
64 192.00 1500.03 352 970 0.510 10000.000 0.000 -0.835
65 195.00 1500.03 335 1045 0.510 10000.000 0.000 -0.835
66 198.00 1500.03 298 1066 0.510 10000.000 0.000 -0.835
67 201.00 1500.03 327 1013 0.510 10000.000 0.000 -0.835
68 204.00 1500.03 326 1119 0.510 10000.000 0.000 -0.835
69 207.00 1500.03 286 1029 0.510 10000.000 0.000 -0.835
70 210.00 1500.03 325 1063 0.510 10000.000 0.000 -0.835
71 213.00 1500.03 337 1074 0.510 10000.000 0.000 -0.835
72 216.00 1500.03 354 1125 0.510 10000.000 0.000 -0.835
73 219.00 1500.03 355 1137 0.510 10000.000 0.000 -0.835
74 222.00 1500.03 352 1163 0.510 10000.000 0.000 -0.835
75 225.00 1500.03 349 1124 0.510 10000.000 0.000 -0.835
76 228.00 1500.03 362 1111 0.510 10000.000 0.000 -0.835
77 231.00 1500.03 367 1162 0.510 10000.000 0.000 -0.835
78 234.00 1500.03 351 1213 0.510 10000.000 0.000 -0.835
79 237.00 1500.03 339 1202 0.510 10000.000 0.000 -0.835
80 240.00 1500.03 384 1202 0.510 10000.000 0.000 -0.835
81 243.00 1500.03 357 1180 0.510 10000.000 0.000 -0.835
82 246.00 1500.03 356 1120 0.510 10000.000 0.000 -0.835
83 249.00 1500.03 362 1155 0.510 10000.000 0.000 -0.835
84 252.00 1500.03 340 1269 0.510 10000.000 0.000 -0.835
85 255.00 1500.03 343 1205 0.510 10000.000 0.000 -0.835
86 258.00 1500.03 342 1168 0.510 10000.000 0.000 -0.835
87 261.00 1500.03 322 1174 0.510 10000.000 0.000 -0.835
88 264.00 1500.03 359 1226 0.510 10000.000 0.000 -0.835
89 267.00 1500.03 313 1180 0.510 10000.000 0.000 -0.835
90 270.00 1500.03 350 1212 0.510 10000.000 0.000 -0.835
91 273.00 1500.03 317 1118 0.510 10000.000 0.000 -0.835
92 276.00 1500.03 332 1170 0.510 10000.000 0.000 -0.835
93 279.00 1500.03 282 1154 0.510 10000.000 0.000 -0.835
94 282.00 1500.03 307 1088 0.510 10000.000 0.000 -0.835
95 285.00 1500.03 286 1076 0.510 10000.000 0.000 -0.835
96 288.00 1500.03 344 1074 0.510 10000.000 0.000 -0.835
97 291.00 1500.03 311 1063 0.510 10000.000 0.000 -0.835
98 294.00 1500.03 310 1017 0.510 10000.000 0.000 -0.835
99 297.00 1500.03 284 1065 0.510 10000.000 0.000 -0.835
100 300.00 1500.03 314 1031 0.510 10000.000 0.000 -0.835
101 303.00 1500.03 303 1071 0.510 10000.000 0.000 -0.835
102 306.00 1500.03 315 1129 0.510 10000.000 0.000 -0.835
103 309.00 1500.03 315 1035 0.510 10000.000 0.000 -0.835
104 312.00 1500.03 332 1118 0.510 10000.000 0.000 -0.835
105 315.00 1500.03 332 1154 0.510 10000.000 0.000 -0.835
106 318.00 1500.03 351 1128 0.510 10000.000 0.000 -0.835
107 321.00 1500.03 314 1169 0.510 10000.000 0.000 -0.835
108 324.00 1500.03 362 1146 0.510 10000.000 0.000 -0.835
109 327.00 1500.03 376 1128 0.510 10000.000 0.000 -0.835
110 330.00 1500.03 345 1184 0.510 10000.000 0.000 -0.835
111 333.00 1500.03 345 1166 0.510 10000.000 0.000 -0.835
112 336.00 1500.03 349 1152 0.510 10000.000 0.000 -0.835
113 339.00 1500.03 356 1147 0.510 10000.000 0.000 -0.835
114 342.00 1500.03 352 1231 0.510 10000.000 0.000 -0.835
115 345.00 1500.03 380 1151 0.510 10000.000 0.000 -0.835
116 348.00 1500.03 397 1193 0.510 10000.000 0.000 -0.835
117 351.00 1500.03 377 1199 0.510 10000.000 0.000 -0.835
118 354.00 1500.03 333 1241 0.510 10000.000 0.000 -0.835
119 357.00 1500.03 362 1170 0.510 10000.000 0.000 -0.835
120 360.00 1500.03 380 1191 0.510 10000.000 0.000 -0.835
121 363.00 1500.03 354 1120 0.510 10000.000 0.000 -0.835
122 366.00 1500.03 377 1189 0.510 10000.000 0.000 -0.835
123 369.00 1500.03 336 1180 0.510 10000.000 0.000 -0.835
124 372.00 1500.03 329 1132 0.510 10000.000 0.000 -0.835
125 375.00 1500.03 346 1140 0.510 10000.000 0.000 -0.835
126 378.00 1500.03 360 1119 0.510 10000.000 0.000 -0.835
127 381.00 1500.03 346 1076 0.510 10000.000 0.000 -0.835
128 384.00 1500.03 306 1095 0.510 10000.000 0.000 -0.835
129 387.00 1500.03 310 1036 0.510 10000.000 0.000 -0.835
130 390.00 1500.03 316 1072 0.510 10000.000 0.000 -0.835
131 393.00 1500.03 329 1044 0.510 10000.000 0.000 -0.835
132 396.00 1500.03 288 1059 0.510 10000.000 0.000 -0.835
133 399.00 1500.03 310 1029 0.510 10000.000 0.000 -0.835
134 402.00 1500.03 304 1012 0.510 10000.000 0.000 -0.835
