# BinNR microsec tot-time (s)  O-Beam AUX Ampl(V) f(Hz) phase(deg) chi(pos)
0 0.00 1500.01 139 489 0.510 10000.000 0.000 1.329
1 3.00 1500.01 283 1040 0.510 10000.000 0.000 1.329
2 6.00 1500.01 313 1035 0.510 10000.000 0.000 1.329
3 9.00 1500.01 313 997 0.510 10000.000 0.000 1.329
4 12.00 1500.01 298 999 0.510 10000.000 0.000 1.329
5 15.00 1500.01 307 1069 0.510 10000.000 0.000 1.329
6 18.00 1500.01 323 1073 0.510 10000.000 0.000 1.329
7 21.00 1500.01 326 1093 0.510 10000.000 0.000 1.329
8 24.00 1500.01 356 1121 0.510 10000.000 0.000 1.329
9 27.00 1500.01 321 1109 0.510 10000.000 0.000 1.329
10 30.00 1500.01 310 1130 0.510 10000.000 0.000 1.329
11 33.00 1500.01 343 1128 0.510 10000.000 0.000 1.329
12 36.00 1500.01 358 1103 0.510 10000.000 0.000 1.329
13 39.00 1500.01 339 1091 0.510 10000.000 0.000 1.329
14 42.00 1500.01 348 1111 0.510 10000.000 0.000 1.329
15 45.00 1500.01 320 1063 0.510 10000.000 0.000 1.329
16 48.00 1500.01 343 1054 0.510 10000.000 0.000 1.329
17 51.00 1500.01 334 1125 0.510 10000.000 0.000 1.329
18 54.00 1500.01 312 1114 0.510 10000.000 0.000 1.329
19 57.00 1500.01 361 1064 0.510 10000.000 0.000 1.329
20 60.00 1500.01 322 1119 0.510 10000.000 0.000 1.329
21 63.00 1500.01 301 1040 0.510 10000.000 0.000 1.329
22 66.00 1500.01 375 1108 0.510 10000.000 0.000 1.329
23 69.00 1500.01 320 1071 0.510 10000.000 0.000 1.329
24 72.00 1500.01 323 1024 0.510 10000.000 0.000 1.329
25 75.00 1500.01 302 982 0.510 10000.000 0.000 1.329
26 78.00 1500.01 300 1018 0.510 10000.000 0.000 1.329
27 81.00 1500.01 279 994 0.510 10000.000 0.000 1.329
28 84.00 1500.01 321 1018 0.510 10000.000 0.000 1.329
29 87.00 1500.01 299 995 0.510 10000.000 0.000 1.329
30 90.00 1500.01 294 1022 0.510 10000.000 0.000 1.329
31 93.00 1500.01 294 1017 0.510 10000.000 0.000 1.329
32 96.00 1500.01 321 1001 0.510 10000.000 0.000 1.329
33 99.00 1500.01 265 935 0.510 10000.000 0.000 1.329
34 102.00 1500.01 292 1007 0.510 10000.000 0.000 1.329
35 105.00 1500.01 306 1028 0.510 10000.000 0.000 1.329
36 108.00 1500.01 294 1020 0.510 10000.000 0.000 1.329
37 111.00 1500.01 323 1017 0.510 10000.000 0.000 1.329
38 114.00 1500.01 319 1003 0.510 10000.000 0.000 1.329
39 117.00 1500.01 302 1005 0.510 10000.000 0.000 1.329
40 120.00 1500.01 354 1176 0.510 10000.000 0.000 1.329
41 123.00 1500.01 316 1090 0.510 10000.000 0.000 1.329
42 126.00 1500.01 313 1122 0.510 10000.000 0.000 1.329
43 129.00 1500.01 369 1033 0.510 10000.000 0.000 1.329
44 132.00 1500.01 356 1110 0.510 10000.000 0.000 1.329
45 135.00 1500.01 338 1068 0.510 10000.000 0.000 1.329
46 138.00 1500.01 356 1118 0.510 10000.000 0.000 1.329
47 141.00 1500.01 346 1100 0.510 10000.000 0.000 1.329
48 144.00 1500.01 363 1138 0.510 10000.000 0.000 1.329
49 147.00 1500.01 343 1102 0.510 10000.000 0.000 1.329
50 150.00 1500.01 335 1052 0.510 10000.000 0.000 1.329
51 153.00 1500.01 307 1058 0.510 10000.000 0.000 1.329
52 156.00 1500.01 341 1085 0.510 10000.000 0.000 1.329
53 159.00 1500.01 356 1101 0.510 10000.000 0.000 1.329
54 162.00 1500.01 313 1104 0.510 10000.000 0.000 1.329
55 165.00 1500.01 297 1027 0.510 10000.000 0.000 1.329
56 168.00 1500.01 340 1027 0.510 10000.000 0.000 1.329
57 171.00 1500.01 306 997 0.510 10000.000 0.000 1.329
58 174.00 1500.01 324 982 0.510 10000.000 0.000 1.329
59 177.00 1500.01 320 1022 0.510 10000.000 0.000 1.329
60 180.00 1500.01 323 1020 0.510 10000.000 0.000 1.329
61 183.00 1500.01 272 953 0.510 10000.000 0.000 1.329
62 186.00 1500.01 304 1005 0.510 10000.000 0.000 1.329
63 189.00 1500.01 277 971 0.510 10000.000 0.000 1.329
64 192.00 1500.01 292 955 0.510 10000.000 0.000 1.329
65 195.00 1500.01 293 946 0.510 10000.000 0.000 1.329
66 198.00 1500.01 315 1019 0.510 10000.000 0.000 1.329
67 201.00 1500.01 296 998 0.510 10000.000 0.000 1.329
68 204.00 1500.01 311 995 0.510 10000.000 0.000 1.329
69 207.00 1500.01 300 936 0.510 10000.000 0.000 1.329
70 210.00 1500.01 322 1045 0.510 10000.000 0.000 1.329
71 213.00 1500.01 337 1019 0.510 10000.000 0.000 1.329
72 216.00 1500.01 339 1109 0.510 10000.000 0.000 1.329
73 219.00 1500.01 308 1020 0.510 10000.000 0.000 1.329
74 222.00 1500.01 325 1071 0.510 10000.000 0.000 1.329
75 225.00 1500.01 349 1019 0.510 10000.000 0.000 1.329
76 228.00 1500.01 339 1051 0.510 10000.000 0.000 1.329
77 231.00 1500.01 343 1150 0.510 10000.000 0.000 1.329
78 234.00 1500.01 329 1097 0.510 10000.000 0.000 1.329
79 237.00 1500.01 347 1086 0.510 10000.000 0.000 1.329
80 240.00 1500.01 353 1138 0.510 10000.000 0.000 1.329
81 243.00 1500.01 344 1066 0.510 10000.000 0.000 1.329
82 246.00 1500.01 363 1093 0.510 10000.000 0.000 1.329
83 249.00 1500.01 310 1080 0.510 10000.000 0.000 1.329
84 252.00 1500.01 344 1118 0.510 10000.000 0.000 1.329
85 255.00 1500.01 324 1066 0.510 10000.000 0.000 1.329
86 258.00 1500.01 359 1137 0.510 10000.000 0.000 1.329
87 261.00 1500.01 321 1126 0.510 10000.000 0.000 1.329
88 264.00 1500.01 314 1103 0.510 10000.000 0.000 1.329
89 267.00 1500.01 344 1033 0.510 10000.000 0.000 1.329
90 270.00 1500.01 311 1040 0.510 10000.000 0.000 1.329
91 273.00 1500.01 319 1045 0.510 10000.000 0.000 1.329
92 276.00 1500.01 288 1036 0.510 10000.000 0.000 1.329
93 279.00 1500.01 303 1010 0.510 10000.000 0.000 1.329
94 282.00 1500.01 303 1023 0.510 10000.000 0.000 1.329
95 285.00 1500.01 271 1028 0.510 10000.000 0.000 1.329
96 288.00 1500.01 296 1014 0.510 10000.000 0.000 1.329
97 291.00 1500.01 300 966 0.510 10000.000 0.000 1.329
98 294.00 1500.01 281 981 0.510 10000.000 0.000 1.329
99 297.00 1500.01 284 954 0.510 10000.000 0.000 1.329
100 300.00 1500.01 315 958 0.510 10000.000 0.000 1.329
101 303.00 1500.01 280 947 0.510 10000.000 0.000 1.329
102 306.00 1500.01 271 998 0.510 10000.000 0.000 1.329
103 309.00 1500.01 312 966 0.510 10000.000 0.000 1.329
104 312.00 1500.01 320 982 0.510 10000.000 0.000 1.329
105 315.00 1500.01 326 993 0.510 10000.000 0.000 1.329
106 318.00 1500.01 333 1082 0.510 10000.000 0.000 1.329
107 321.00 1500.01 347 1036 0.510 10000.000 0.000 1.329
108 324.00 1500.01 327 1135 0.510 10000.000 0.000 1.329
109 327.00 1500.01 328 1040 0.510 10000.000 0.000 1.329
110 330.00 1500.01 315 1107 0.510 10000.000 0.000 1.329
111 333.00 1500.01 324 1103 0.510 10000.000 0.000 1.329
112 336.00 1500.01 357 1117 0.510 10000.000 0.000 1.329
113 339.00 1500.01 348 1108 0.510 10000.000 0.000 1.329
114 342.00 1500.01 348 1169 0.510 10000.000 0.000 1.329
115 345.00 1500.01 345 1079 0.510 10000.000 0.000 1.329
116 348.00 1500.01 316 1101 0.510 10000.000 0.000 1.329
117 351.00 1500.01 326 1100 0.510 10000.000 0.000 1.329
118 354.00 1500.01 311 1092 0.510 10000.000 0.000 1.329
119 357.00 1500.01 305 1160 0.510 10000.000 0.000 1.329
120 360.00 1500.01 301 1151 0.510 10000.000 0.000 1.329
121 363.00 1500.01 346 1075 0.510 10000.000 0.000 1.329
122 366.00 1500.01 334 1016 0.510 10000.000 0.000 1.329
123 369.00 1500.01 335 1082 0.510 10000.000 0.000 1.329
124 372.00 1500.01 326 995 0.510 10000.000 0.000 1.329
125 375.00 1500.01 326 998 0.510 10000.000 0.000 1.329
126 378.00 1500.01 282 1048 0.510 10000.000 0.000 1.329
127 381.00 1500.01 305 1048 0.510 10000.000 0.000 1.329
128 384.00 1500.01 309 988 0.510 10000.000 0.000 1.329
129 387.00 1500.01 270 1007 0.510 10000.000 0.000 1.329
130 390.00 1500.01 281 996 0.510 10000.000 0.000 1.329
131 393.00 1500.01 301 911 0.510 10000.000 0.000 1.329
132 396.00 1500.01 312 957 0.510 10000.000 0.000 1.329
133 399.00 1500.01 268 950 0.510 10000.000 0.000 1.329
134 402.00 1500.01 283 1013 0.510 10000.000 0.000 1.329
