# BinNR microsec tot-time (s)  O-Beam AUX Ampl(V) f(Hz) phase(deg) chi(pos)
0 0.00 1500.01 50 150 0.510 10000.000 0.000 0.835
1 3.00 1500.01 98 289 0.510 10000.000 0.000 0.835
2 6.00 1500.01 104 312 0.510 10000.000 0.000 0.835
3 9.00 1500.01 110 312 0.510 10000.000 0.000 0.835
4 12.00 1500.01 106 347 0.510 10000.000 0.000 0.835
5 15.00 1500.01 107 334 0.510 10000.000 0.000 0.835
6 18.00 1500.01 97 339 0.510 10000.000 0.000 0.835
7 21.00 1500.01 102 375 0.510 10000.000 0.000 0.835
8 24.00 1500.01 113 380 0.510 10000.000 0.000 0.835
9 27.00 1500.01 116 433 0.510 10000.000 0.000 0.835
10 30.00 1500.01 127 462 0.510 10000.000 0.000 0.835
11 33.00 1500.01 109 437 0.510 10000.000 0.000 0.835
12 36.00 1500.01 136 441 0.510 10000.000 0.000 0.835
13 39.00 1500.01 119 429 0.510 10000.000 0.000 0.835
14 42.00 1500.01 117 427 0.510 10000.000 0.000 0.835
15 45.00 1500.01 123 396 0.510 10000.000 0.000 0.835
16 48.00 1500.01 116 413 0.510 10000.000 0.000 0.835
17 51.00 1500.01 137 407 0.510 10000.000 0.000 0.835
18 54.00 1500.01 114 389 0.510 10000.000 0.000 0.835
19 57.00 1500.01 111 373 0.510 10000.000 0.000 0.835
20 60.00 1500.01 96 407 0.510 10000.000 0.000 0.835
21 63.00 1500.01 124 397 0.510 10000.000 0.000 0.835
22 66.00 1500.01 111 390 0.510 10000.000 0.000 0.835
23 69.00 1500.01 103 373 0.510 10000.000 0.000 0.835
24 72.00 1500.01 96 381 0.510 10000.000 0.000 0.835
25 75.00 1500.01 105 309 0.510 10000.000 0.000 0.835
26 78.00 1500.01 107 327 0.510 10000.000 0.000 0.835
27 81.00 1500.01 105 341 0.510 10000.000 0.000 0.835
28 84.00 1500.01 118 301 0.510 10000.000 0.000 0.835
29 87.00 1500.01 113 270 0.510 10000.000 0.000 0.835
30 90.00 1500.01 91 310 0.510 10000.000 0.000 0.835
31 93.00 1500.01 87 293 0.510 10000.000 0.000 0.835
32 96.00 1500.01 103 268 0.510 10000.000 0.000 0.835
33 99.00 1500.01 102 274 0.510 10000.000 0.000 0.835
34 102.00 1500.01 108 283 0.510 10000.000 0.000 0.835
35 105.00 1500.01 119 291 0.510 10000.000 0.000 0.835
36 108.00 1500.01 88 292 0.510 10000.000 0.000 0.835
37 111.00 1500.01 101 323 0.510 10000.000 0.000 0.835
38 114.00 1500.01 109 337 0.510 10000.000 0.000 0.835
39 117.00 1500.01 96 319 0.510 10000.000 0.000 0.835
40 120.00 1500.01 122 381 0.510 10000.000 0.000 0.835
41 123.00 1500.01 131 380 0.510 10000.000 0.000 0.835
42 126.00 1500.01 131 394 0.510 10000.000 0.000 0.835
43 129.00 1500.01 126 396 0.510 10000.000 0.000 0.835
44 132.00 1500.01 128 355 0.510 10000.000 0.000 0.835
45 135.00 1500.01 121 403 0.510 10000.000 0.000 0.835
46 138.00 1500.01 144 448 0.510 10000.000 0.000 0.835
47 141.00 1500.01 119 416 0.510 10000.000 0.000 0.835
48 144.00 1500.01 142 476 0.510 10000.000 0.000 0.835
49 147.00 1500.01 123 449 0.510 10000.000 0.000 0.835
50 150.00 1500.01 103 455 0.510 10000.000 0.000 0.835
51 153.00 1500.01 118 453 0.510 10000.000 0.000 0.835
52 156.00 1500.01 121 434 0.510 10000.000 0.000 0.835
53 159.00 1500.01 137 416 0.510 10000.000 0.000 0.835
54 162.00 1500.01 103 424 0.510 10000.000 0.000 0.835
55 165.00 1500.01 111 353 0.510 10000.000 0.000 0.835
56 168.00 1500.01 100 394 0.510 10000.000 0.000 0.835
57 171.00 1500.01 113 352 0.510 10000.000 0.000 0.835
58 174.00 1500.01 108 313 0.510 10000.000 0.000 0.835
59 177.00 1500.01 103 313 0.510 10000.000 0.000 0.835
60 180.00 1500.01 114 357 0.510 10000.000 0.000 0.835
61 183.00 1500.01 97 312 0.510 10000.000 0.000 0.835
62 186.00 1500.01 125 300 0.510 10000.000 0.000 0.835
63 189.00 1500.01 115 277 0.510 10000.000 0.000 0.835
64 192.00 1500.01 93 249 0.510 10000.000 0.000 0.835
65 195.00 1500.01 87 271 0.510 10000.000 0.000 0.835
66 198.00 1500.01 116 272 0.510 10000.000 0.000 0.835
67 201.00 1500.01 99 307 0.510 10000.000 0.000 0.835
68 204.00 1500.01 115 319 0.510 10000.000 0.000 0.835
69 207.00 1500.01 110 264 0.510 10000.000 0.000 0.835
70 210.00 1500.01 96 298 0.510 10000.000 0.000 0.835
71 213.00 1500.01 124 301 0.510 10000.000 0.000 0.835
72 216.00 1500.01 104 329 0.510 10000.000 0.000 0.835
73 219.00 1500.01 103 357 0.510 10000.000 0.000 0.835
74 222.00 1500.01 113 368 0.510 10000.000 0.000 0.835
75 225.00 1500.01 103 367 0.510 10000.000 0.000 0.835
76 228.00 1500.01 136 403 0.510 10000.000 0.000 0.835
77 231.00 1500.01 129 370 0.510 10000.000 0.000 0.835
78 234.00 1500.01 142 436 0.510 10000.000 0.000 0.835
79 237.00 1500.01 114 448 0.510 10000.000 0.000 0.835
80 240.00 1500.01 102 460 0.510 10000.000 0.000 0.835
81 243.00 1500.01 136 420 0.510 10000.000 0.000 0.835
82 246.00 1500.01 135 475 0.510 10000.000 0.000 0.835
83 249.00 1500.01 138 447 0.510 10000.000 0.000 0.835
84 252.00 1500.01 131 424 0.510 10000.000 0.000 0.835
85 255.00 1500.01 110 452 0.510 10000.000 0.000 0.835
86 258.00 1500.01 128 405 0.510 10000.000 0.000 0.835
87 261.00 1500.01 111 431 0.510 10000.000 0.000 0.835
88 264.00 1500.01 126 384 0.510 10000.000 0.000 0.835
89 267.00 1500.01 98 411 0.510 10000.000 0.000 0.835
90 270.00 1500.01 103 373 0.510 10000.000 0.000 0.835
91 273.00 1500.01 106 329 0.510 10000.000 0.000 0.835
92 276.00 1500.01 101 367 0.510 10000.000 0.000 0.835
93 279.00 1500.01 113 298 0.510 10000.000 0.000 0.835
94 282.00 1500.01 116 312 0.510 10000.000 0.000 0.835
95 285.00 1500.01 87 285 0.510 10000.000 0.000 0.835
96 288.00 1500.01 113 313 0.510 10000.000 0.000 0.835
97 291.00 1500.01 83 292 0.510 10000.000 0.000 0.835
98 294.00 1500.01 104 292 0.510 10000.000 0.000 0.835
99 297.00 1500.01 94 281 0.510 10000.000 0.000 0.835
100 300.00 1500.01 80 243 0.510 10000.000 0.000 0.835
101 303.00 1500.01 112 285 0.510 10000.000 0.000 0.835
102 306.00 1500.01 99 296 0.510 10000.000 0.000 0.835
103 309.00 1500.01 117 318 0.510 10000.000 0.000 0.835
104 312.00 1500.01 108 340 0.510 10000.000 0.000 0.835
105 315.00 1500.01 108 369 0.510 10000.000 0.000 0.835
106 318.00 1500.01 104 351 0.510 10000.000 0.000 0.835
107 321.00 1500.01 128 344 0.510 10000.000 0.000 0.835
108 324.00 1500.01 118 352 0.510 10000.000 0.000 0.835
109 327.00 1500.01 124 370 0.510 10000.000 0.000 0.835
110 330.00 1500.01 135 427 0.510 10000.000 0.000 0.835
111 333.00 1500.01 140 417 0.510 10000.000 0.000 0.835
112 336.00 1500.01 136 408 0.510 10000.000 0.000 0.835
113 339.00 1500.01 126 418 0.510 10000.000 0.000 0.835
114 342.00 1500.01 109 496 0.510 10000.000 0.000 0.835
115 345.00 1500.01 123 418 0.510 10000.000 0.000 0.835
116 348.00 1500.01 118 463 0.510 10000.000 0.000 0.835
117 351.00 1500.01 128 423 0.510 10000.000 0.000 0.835
118 354.00 1500.01 135 416 0.510 10000.000 0.000 0.835
119 357.00 1500.01 117 443 0.510 10000.000 0.000 0.835
120 360.00 1500.01 119 444 0.510 10000.000 0.000 0.835
121 363.00 1500.01 111 351 0.510 10000.000 0.000 0.835
122 366.00 1500.01 93 388 0.510 10000.000 0.000 0.835
123 369.00 1500.01 105 372 0.510 10000.000 0.000 0.835
124 372.00 1500.01 105 343 0.510 10000.000 0.000 0.835
125 375.00 1500.01 87 306 0.510 10000.000 0.000 0.835
126 378.00 1500.01 111 344 0.510 10000.000 0.000 0.835
127 381.00 1500.01 109 285 0.510 10000.000 0.000 0.835
128 384.00 1500.01 97 275 0.510 10000.000 0.000 0.835
129 387.00 1500.01 119 302 0.510 10000.000 0.000 0.835
130 390.00 1500.01 103 284 0.510 10000.000 0.000 0.835
131 393.00 1500.01 93 288 0.510 10000.000 0.000 0.835
132 396.00 1500.01 117 261 0.510 10000.000 0.000 0.835
133 399.00 1500.01 116 300 0.510 10000.000 0.000 0.835
134 402.00 1500.01 98 270 0.510 10000.000 0.000 0.835
